"Time (s)","Acceleration x (m/s^2)","Acceleration y (m/s^2)","Acceleration z (m/s^2)"
2.815528300E-2,-3.224926710E0,-3.690928936E0,8.475975990E0
3.815528300E-2,-3.058027267E0,-3.465405464E0,8.397012711E0
4.815528300E-2,-2.818745136E0,-3.327818155E0,8.542376518E0
5.815528300E-2,-2.646461725E0,-3.505485058E0,8.666205406E0
6.815528300E-2,-2.564507723E0,-3.731008768E0,8.765507698E0
7.815528300E-2,-2.593221426E0,-3.923032761E0,8.879166603E0
8.815528300E-2,-2.779263496E0,-4.116253376E0,9.121439934E0
9.815528300E-2,-3.166900873E0,-4.075575352E0,8.756534576E0
1.081552830E-1,-3.411566973E0,-4.112663746E0,8.487341881E0
1.181552830E-1,-3.497708559E0,-4.202394962E0,8.342576027E0
1.281552830E-1,-3.268595695E0,-4.316053867E0,8.098507881E0
1.381552830E-1,-2.977269650E0,-4.246662140E0,7.807780266E0
1.481552830E-1,-2.848057270E0,-4.146163464E0,7.775477409E0
1.581552830E-1,-2.804986238E0,-4.007379532E0,7.819744587E0
1.681552830E-1,-2.886342287E0,-3.892524242E0,7.858627796E0
1.781552830E-1,-2.919841766E0,-3.845266104E0,7.916055679E0
1.881552830E-1,-2.919243574E0,-3.927818298E0,8.130811691E0
1.981552830E-1,-3.019144058E0,-4.150949001E0,8.522037506E0
2.081552830E-1,-3.229712248E0,-4.332803726E0,8.495717049E0
2.181552830E-1,-3.244069338E0,-4.374678135E0,8.337790489E0
2.281552830E-1,-3.181855917E0,-4.426722050E0,8.246863365E0
2.381552830E-1,-3.101098061E0,-4.372883320E0,8.074580193E0
2.481552830E-1,-2.995813847E0,-4.291527271E0,8.037490845E0
2.581552830E-1,-3.063411236E0,-4.232903481E0,7.893921852E0
2.681552830E-1,-3.168695450E0,-4.252045631E0,7.855038643E0
2.781552830E-1,-3.034697294E0,-4.121636868E0,7.731808186E0
2.881552830E-1,-2.810370207E0,-4.006183147E0,7.633104324E0
2.981552830E-1,-2.657229662E0,-3.949951887E0,7.806583881E0
3.081552830E-1,-2.623729944E0,-3.862613916E0,7.677969456E0
3.181552830E-1,-2.538186550E0,-3.726222992E0,7.338787079E0
3.281552830E-1,-2.529811859E0,-3.613162279E0,6.870391846E0
3.381552830E-1,-2.669193745E0,-3.725026608E0,6.346961975E0
3.481552830E-1,-2.794218540E0,-4.081557274E0,5.894120216E0
3.581552830E-1,-2.809173822E0,-4.421338081E0,5.159523964E0
3.681552830E-1,-2.657827854E0,-4.392624378E0,4.403391838E0
3.781552830E-1,-2.654238462E0,-3.957728624E0,3.822534084E0
3.881552830E-1,-2.660220623E0,-3.380460262E0,3.342175007E0
3.981552830E-1,-2.694916487E0,-3.256631613E0,2.615355253E0
4.081552830E-1,-3.178864956E0,-3.299104214E0,1.741376638E0
4.181552830E-1,-3.016152859E0,-3.769293785E0,1.978266120E0
4.281552830E-1,-2.388635159E0,-5.165505886E0,4.820939541E0
4.381552830E-1,-2.425125837E0,-5.936593056E0,5.678168297E0
4.481552830E-1,-2.471187592E0,-5.997610092E0,3.943969965E0
4.581552830E-1,-1.770090580E0,-6.204588890E0,2.700300455E0
4.681552830E-1,-1.091127157E0,-6.815357208E0,2.531606436E0
4.781552830E-1,-7.525427341E-1,-7.749754429E0,1.981257200E0
4.881552830E-1,-1.159322619E0,-8.608778000E0,1.576271892E0
4.981552830E-1,-2.636292458E0,-9.719645500E0,1.491924882E0
5.081552830E-1,-4.524827480E0,-1.096451187E1,1.347757339E0
5.181552830E-1,-5.567500114E0,-1.219561863E1,6.077769399E-1
5.281552830E-1,-6.141179085E0,-1.281894875E1,7.549355626E-1
5.381552830E-1,-6.704091072E0,-1.306301689E1,1.349551916E0
5.481552830E-1,-5.988038540E0,-1.356610775E1,3.135195971E0
5.581552830E-1,-5.102096081E0,-1.365643692E1,3.909274101E0
5.681552830E-1,-4.146761417E0,-1.336750412E1,3.732803345E0
5.781552830E-1,-3.470789194E0,-1.230449200E1,2.224128723E0
5.881552830E-1,-2.517249346E0,-1.275972652E1,3.134597778E0
5.981552830E-1,-1.604387641E0,-1.314257812E1,5.577669621E0
6.081552830E-1,-1.593021631E0,-1.359841156E1,9.564111710E0
6.181552830E-1,-2.408375978E0,-1.320897961E1,1.364327621E1
6.281552830E-1,-2.470589399E0,-1.175294685E1,1.119541931E1
6.381552830E-1,-3.027518749E0,-1.035494041E1,7.304689407E0
6.481552830E-1,-3.295515060E0,-9.678369522E0,4.664209366E0
6.581552830E-1,-3.285943747E0,-9.001200676E0,2.025524378E0
6.681552830E-1,-2.675773859E0,-8.965308189E0,9.553344250E-1
6.781552830E-1,-1.919043779E0,-1.013479996E1,1.367498159E0
6.881552830E-1,-1.827518344E0,-1.116012478E1,1.610369682E0
6.981552830E-1,-1.719243050E0,-1.128215885E1,4.175475538E-1
7.081552830E-1,-1.305284739E0,-1.007019424E1,-4.779663086E-1
7.181552830E-1,-1.295713425E0,-9.387641907E0,-1.286142170E-1
7.281552830E-1,-1.543370605E0,-9.734601021E0,2.416750938E-1
7.381552830E-1,-1.561915040E0,-9.728618622E0,7.393822074E-1
7.481552830E-1,-1.527219057E0,-9.722636223E0,1.371685624E0
7.581552830E-1,-1.550549030E0,-9.797411919E0,1.788036704E0
7.681552830E-1,-1.616949916E0,-9.783055305E0,1.840080619E0
7.781552830E-1,-1.703689694E0,-9.844670296E0,1.652842283E0
7.881552830E-1,-1.841277003E0,-9.852447510E0,2.106880426E0
7.981552830E-1,-1.932802439E0,-9.755537987E0,1.968694806E0
8.081552830E-1,-1.942373753E0,-9.620942116E0,1.825723648E0
8.181552830E-1,-1.808973908E0,-9.428318977E0,1.645663738E0
8.281552830E-1,-1.704287887E0,-9.162715912E0,1.298106313E0
8.381552830E-1,-1.676172256E0,-9.102895737E0,9.918249846E-1
8.481552830E-1,-1.557129383E0,-9.083154678E0,8.488538265E-1
8.581552830E-1,-1.594816327E0,-9.140582085E0,9.056833982E-1
8.681552830E-1,-1.724028707E0,-9.260822296E0,9.475577474E-1
8.781552830E-1,-2.058425665E0,-9.448060036E0,9.882357717E-1
8.881552830E-1,-2.139183521E0,-9.703494072E0,1.206580877E0
8.981552830E-1,-2.133799553E0,-9.839286804E0,1.526620865E0
9.081552830E-1,-2.042872429E0,-9.772886276E0,1.657029629E0
9.181552830E-1,-1.966900229E0,-9.614959717E0,1.634297848E0
9.281552830E-1,-1.756331801E0,-9.494122505E0,1.515853167E0
9.381552830E-1,-1.603191137E0,-9.518050194E0,1.511665702E0
9.481552830E-1,-1.670788407E0,-9.359525681E0,1.445264935E0
9.581552830E-1,-1.853241086E0,-9.275776863E0,9.708877802E-1
9.681552830E-1,-1.887338877E0,-9.172885895E0,6.699903607E-1
9.781552830E-1,-1.977667928E0,-9.266205788E0,9.948160052E-1
9.881552830E-1,-2.201396942E0,-9.412766457E0,1.399801254E0
9.981552830E-1,-2.325225353E0,-9.518648148E0,1.513460279E0
1.008155283E0,-2.234298229E0,-9.606584549E0,1.814955950E0
1.018155283E0,-1.984846354E0,-9.526425362E0,2.056032896E0
1.028155283E0,-1.779661894E0,-9.372088432E0,1.871187329E0
1.038155283E0,-1.694118381E0,-9.375677109E0,1.732403636E0
1.048155283E0,-1.737189293E0,-9.561718941E0,1.554138303E0
1.058155283E0,-1.832902193E0,-9.589237213E0,1.362114310E0
1.068155283E0,-1.953739643E0,-9.519247055E0,8.925228715E-1
1.078155283E0,-1.862812400E0,-9.418747902E0,8.793623447E-1
1.088155283E0,-1.791027784E0,-9.247062683E0,1.009771109E0
1.098155283E0,-1.757528186E0,-9.151947975E0,1.139581800E0
1.108155283E0,-1.761117458E0,-9.049654961E0,1.576271892E0
1.118155283E0,-1.646261930E0,-8.988039970E0,1.667797327E0
1.128155283E0,-1.651645780E0,-8.952147484E0,1.356730461E0
1.138155283E0,-1.718644857E0,-9.099904060E0,1.197607756E0
1.148155283E0,-1.914856315E0,-9.387641907E0,1.329213023E0
1.158155283E0,-2.000399828E0,-9.779465675E0,1.206580877E0
1.168155283E0,-1.962114573E0,-9.814162254E0,1.412363529E0
1.178155283E0,-2.014158487E0,-9.691530228E0,1.624128342E0
1.188155283E0,-2.349751949E0,-9.952347755E0,1.271187067E0
1.198155283E0,-2.574677229E0,-1.007079220E1,1.025324464E0
1.208155283E0,-2.594418049E0,-9.744172096E0,8.261220455E-1
1.218155283E0,-2.536990166E0,-9.429515839E0,1.005583763E0
1.228155283E0,-2.240280151E0,-9.186046600E0,1.123430252E0
1.238155283E0,-2.154138565E0,-9.133403778E0,1.119242787E0
1.248155283E0,-2.206780672E0,-9.343374252E0,1.012163997E0
1.258155283E0,-2.193022013E0,-9.452247620E0,8.488538265E-1
1.268155283E0,-2.398804665E0,-9.637691498E0,6.556333899E-1
1.278155283E0,-2.508276224E0,-9.854242325E0,8.117650747E-1
1.288155283E0,-2.733201742E0,-1.001575756E1,5.844469070E-1
1.298155283E0,-2.651845694E0,-1.035972595E1,5.491527915E-1
1.308155283E0,-2.307279348E0,-1.031785107E1,7.758727670E-1
1.318155283E0,-1.566102386E0,-9.638887405E0,9.122636318E-1
1.328155283E0,-1.661815286E0,-9.400801659E0,1.128814101E0
1.338155283E0,-1.780858278E0,-9.305088997E0,1.124626637E0
1.348155283E0,-1.709073544E0,-9.305088997E0,1.172483087E0
1.358155283E0,-1.858026743E0,-9.318847656E0,1.057029366E0
1.368155283E0,-2.139781713E0,-9.305088997E0,1.046261668E0
1.378155283E0,-2.125424623E0,-9.320044518E0,1.141974568E0
1.388155283E0,-3.091526747E0,-9.930213928E0,6.843472719E-1
1.398155283E0,-2.280958176E0,-8.928219795E0,-2.494517565E-1
1.408155283E0,-1.911267042E0,-8.800203323E0,6.915257573E-1
1.418155283E0,-2.178664923E0,-8.997013092E0,7.944171429E-1
1.428155283E0,-2.225325108E0,-9.260223389E0,1.515853167E0
1.438155283E0,-2.185843468E0,-9.081359863E0,2.048256159E0
1.448155283E0,-2.075773716E0,-8.691329956E0,2.377269268E0
1.458155283E0,-2.079961061E0,-8.483154297E0,2.804388046E0
1.468155283E0,-2.113460541E0,-8.506484032E0,2.641077995E0
1.478155283E0,-2.243869543E0,-8.392825127E0,2.133799553E0
1.488155283E0,-2.392822742E0,-8.288737297E0,1.473380566E0
1.498155283E0,-2.440679073E0,-8.131409645E0,1.588834286E0
1.508155283E0,-2.283949137E0,-8.365307808E0,7.549355626E-1
1.518155283E0,-1.829911113E0,-8.882157326E0,8.207381964E-1
1.528155283E0,-1.679163337E0,-9.329017639E0,1.919641972E0
1.538155283E0,-1.849651933E0,-9.431310654E0,2.938386202E0
1.548155283E0,-1.989033818E0,-9.214161873E0,2.632703066E0
1.558155283E0,-2.262413740E0,-9.283554077E0,2.219342947E0
1.568155283E0,-2.372483730E0,-9.498309135E0,2.078764677E0
1.578155283E0,-2.701496840E0,-8.703892708E0,2.829512835E0
1.588155283E0,-2.348555326E0,-8.810373306E0,2.250449657E0
1.598155283E0,-2.027917147E0,-8.930612564E0,2.375474691E0
1.608155283E0,-2.108076811E0,-9.397212982E0,2.764906645E0
1.618155283E0,-3.327219963E0,-9.151947975E0,3.154338360E0
1.628155283E0,-2.507079840E0,-8.598010063E0,1.983051777E0
1.638155283E0,-2.370688915E0,-6.872784615E0,3.847658873E0
1.648155283E0,-2.006381750E0,-7.176673412E0,4.350151539E0
1.658155283E0,-2.116451740E0,-7.605587006E0,3.978067636E0
1.668155283E0,-2.279163599E0,-7.919644833E0,3.745963812E0
1.678155283E0,-2.169093609E0,-8.136195183E0,3.950550079E0
1.688155283E0,-2.045265198E0,-8.072187424E0,3.674179077E0
1.698155283E0,-1.988435626E0,-7.922037601E0,3.392424345E0
1.708155283E0,-1.509871125E0,-7.779664516E0,3.658625841E0
1.718155283E0,-1.092921734E0,-7.424928665E0,4.304089546E0
1.728155283E0,-1.135394335E0,-7.034300327E0,4.646263599E0
1.738155283E0,-1.206580877E0,-6.854838848E0,4.953741074E0
1.748155283E0,-1.699502230E0,-6.902096748E0,4.831707001E0
1.758155283E0,-1.972882271E0,-6.847062111E0,4.438685894E0
1.768155283E0,-2.169692039E0,-7.490133286E0,3.887738705E0
1.778155283E0,-2.316850424E0,-7.735397339E0,4.130012035E0
1.788155283E0,-2.014158487E0,-7.693522930E0,5.069792747E0
1.798155283E0,-1.471585870E0,-7.191628456E0,6.736992359E0
1.808155283E0,-1.321436286E0,-6.561717987E0,7.775477409E0
1.818155283E0,-1.801197290E0,-5.989234924E0,7.322635651E0
1.828155283E0,-2.074577332E0,-5.870192051E0,6.575476646E0
1.838155283E0,-2.200798512E0,-5.635695457E0,5.791228771E0
1.848155283E0,-1.972284079E0,-5.501697540E0,5.093721390E0
1.858155283E0,-1.637288928E0,-5.583053589E0,5.180460930E0
1.868155283E0,-1.253240824E0,-5.316253662E0,6.122036934E0
1.878155283E0,-1.122832060E0,-5.140979290E0,7.182057381E0
1.888155283E0,-1.288534999E0,-5.676373482E0,7.805387497E0
1.898155283E0,-1.542772412E0,-6.461817741E0,7.152745247E0
1.908155283E0,-1.424925923E0,-7.267600536E0,5.869594097E0
1.918155283E0,-1.047458172E0,-7.529614449E0,5.802595139E0
1.928155283E0,-1.353739381E0,-6.888338089E0,5.724229813E0
1.938155283E0,-2.060818434E0,-6.165705681E0,6.367300987E0
1.948155283E0,-2.203191519E0,-5.840281963E0,7.125825882E0
1.958155283E0,-1.661217093E0,-5.645267010E0,8.158329010E0
1.968155283E0,-1.363908887E0,-5.122435093E0,8.723034859E0
1.978155283E0,-1.456032634E0,-4.725226402E0,8.040482521E0
1.988155283E0,-1.661815286E0,-4.896313190E0,7.808976650E0
1.998155283E0,-2.145165443E0,-5.661418438E0,7.591229916E0
2.008155283E0,-2.632703066E0,-5.953940868E0,7.606783390E0
2.018155283E0,-3.051447153E0,-5.688337803E0,8.770293236E0
2.028155283E0,-2.758326292E0,-5.415555954E0,9.530014038E0
2.038155283E0,-2.341975212E0,-6.230311871E0,9.732208252E0
2.048155283E0,-2.021935225E0,-5.689534187E0,9.780064583E0
2.058155283E0,-1.912463546E0,-5.084149837E0,9.434899330E0
2.068155283E0,-1.708475351E0,-4.601397991E0,8.797212601E0
2.078155283E0,-1.741974831E0,-3.999603033E0,8.982656479E0
2.088155283E0,-1.746162295E0,-3.871587038E0,9.208778381E0
2.098155283E0,-1.908276081E0,-4.051048756E0,9.570692062E0
2.108155283E0,-1.960918188E0,-4.393820763E0,9.281160355E0
2.118155283E0,-1.740778446E0,-4.599603176E0,9.328418732E0
2.128155283E0,-2.032104731E0,-4.449453831E0,9.706484795E0
2.138155283E0,-2.127817631E0,-4.214957237E0,9.712467194E0
2.148155283E0,-1.983051777E0,-3.798007727E0,1.040997505E1
2.158155283E0,-1.925624013E0,-3.435495138E0,1.059422207E1
2.168155283E0,-2.165504456E0,-3.752544165E0,9.954740524E0
2.178155283E0,-2.243271112E0,-3.945166349E0,9.393025398E0
2.188155283E0,-1.927418590E0,-4.082753658E0,9.239884377E0
2.198155283E0,-1.310070395E0,-2.550748825E0,1.005643559E1
2.208155283E0,-1.371685624E0,-2.562114954E0,1.031007481E1
2.218155283E0,-1.362114310E0,-2.299502611E0,1.039801121E1
2.228155283E0,-1.256830096E0,-2.003988981E0,1.056311512E1
2.238155283E0,-1.175474167E0,-1.774278045E0,1.061755180E1
2.248155283E0,-1.118644595E0,-1.534995675E0,1.060499001E1
2.258155283E0,-1.171286702E0,-1.405185103E0,1.053858948E1
2.268155283E0,-1.095314622E0,-1.350748420E0,1.028554821E1
2.278155283E0,-7.363911867E-1,-1.202991605E0,1.035015392E1
2.288155283E0,-3.349951804E-1,-6.574280262E-1,1.043629551E1
2.298155283E0,-7.268198729E-1,2.781656384E-1,1.078086281E1
2.308155283E0,-6.448656917E-1,7.052844763E-1,1.131505966E1
2.318155283E0,-1.027119160E0,4.600201547E-1,1.153280735E1
2.328155283E0,-1.207179070E0,9.792626500E-1,1.259342575E1
2.338155283E0,-1.464407444E0,1.366899967E0,1.331306744E1
2.348155283E0,-1.670788407E0,3.421736360E-1,1.259701443E1
2.358155283E0,-1.619342685E0,-2.464607358E-1,1.184686470E1
2.368155283E0,-1.542772412E0,-8.129615188E-1,1.142692471E1
2.378155283E0,-1.563709617E0,-7.692924738E-1,1.059362411E1
2.388155283E0,-1.235294700E0,-8.590233326E-1,9.636494637E0
2.398155283E0,-1.025922656E0,-5.784648657E-1,9.236893654E0
2.408155283E0,-1.088136077E0,-3.529413342E-1,9.156734467E0
2.418155283E0,-9.936196208E-1,2.243271172E-1,8.686544418E0
2.428155283E0,-8.309076428E-1,4.881358147E-1,8.588438988E0
2.438155283E0,-6.442674994E-1,5.054838061E-1,8.881559372E0
2.448155283E0,-6.921239495E-1,5.383850932E-1,8.991629601E0
2.458155283E0,-9.445667267E-1,5.688936114E-1,9.402596474E0
2.468155283E0,-1.087537885E0,2.291127741E-1,9.452845573E0
2.478155283E0,-1.097109199E0,2.985046208E-1,9.754940033E0
2.488155283E0,-1.048654556E0,4.061816335E-1,1.015753174E1
2.498155283E0,-9.194421172E-1,1.860419661E-1,1.018564796E1
2.508155283E0,-8.183453679E-1,7.058826834E-2,1.033400249E1
2.518155283E0,-7.417750359E-1,-5.503492057E-2,1.052004433E1
2.528155283E0,-1.143171072E0,-1.459621787E-1,1.039801121E1
2.538155283E0,-1.464407444E0,5.742774159E-2,1.002473068E1
2.548155283E0,-1.746760488E0,4.648058116E-1,9.934999466E0
2.558155283E0,-2.134397745E0,5.988038778E-1,9.872187614E0
2.568155283E0,-2.178066730E0,-1.794616925E-3,9.432506561E0
2.578155283E0,-2.312064886E0,4.241278172E-1,9.420542717E0
2.588155283E0,-2.216351986E0,5.198407173E-1,9.473783493E0
2.598155283E0,-1.843071699E0,1.740778536E-1,9.678967476E0
2.608155283E0,-1.804188251E0,-1.184447184E-1,9.816555023E0
2.618155283E0,-2.024327993E0,-6.287141442E-1,9.501300812E0
2.628155283E0,-2.225325108E0,-6.861419082E-1,9.457033157E0
2.638155283E0,-2.162513494E0,-4.923232496E-1,9.783653259E0
2.648155283E0,-2.109871387E0,-3.260220885E-1,9.991230965E0
2.658155283E0,-2.234298229E0,-2.153540403E-1,9.881160736E0
2.668155283E0,-2.210369825E0,-1.812563092E-1,9.838089943E0
2.678155283E0,-2.215753794E0,-2.907279432E-1,9.689137459E0
2.688155283E0,-2.287538528E0,-3.463610709E-1,9.410971642E0
2.698155283E0,-2.355135679E0,-6.173482537E-1,9.135796547E0
2.708155283E0,-2.493919373E0,-1.022333503E0,8.850452423E0
2.718155283E0,-2.522035122E0,-1.129412293E0,9.074779510E0
2.728155283E0,-2.234896421E0,-9.445667267E-1,9.421739578E0
2.738155283E0,-1.952543259E0,-8.117650747E-1,9.710672379E0
2.748155283E0,-2.053041935E0,-8.638089895E-1,9.585647583E0
2.758155283E0,-2.076970100E0,-8.829515576E-1,9.528220177E0
2.768155283E0,-2.143969059E0,-8.823533654E-1,9.436694145E0
2.778155283E0,-2.115255117E0,-1.016949654E0,9.584450722E0
2.788155283E0,-2.166700840E0,-1.129412293E0,9.957133293E0
2.798155283E0,-2.027318954E0,-1.638485312E0,1.022273636E1
2.808155283E0,-2.146960020E0,-1.691725612E0,1.029332447E1
2.818155283E0,-2.276770830E0,-1.330409408E0,9.921838760E0
2.828155283E0,-1.956730723E0,-1.115653515E0,9.991230965E0
2.838155283E0,-1.789233088E0,-1.168295622E0,1.002054310E1
2.848155283E0,-1.894517303E0,-1.491924882E0,9.773484230E0
2.858155283E0,-1.942373753E0,-1.328614831E0,9.664610863E0
2.868155283E0,-1.645663738E0,-1.560718536E0,1.007617569E1
2.878155283E0,-2.178664923E0,-2.868994236E0,1.103749275E1
2.888155283E0,-1.842473388E0,-1.504487276E0,9.481559753E0
2.898155283E0,-1.917249203E0,-5.090730190E-1,7.936394691E0
2.908155283E0,-2.175673962E0,-1.830509305E-1,7.875377655E0
2.918155283E0,-2.193620205E0,-5.084748268E-1,8.629714966E0
2.928155283E0,-1.934597135E0,-6.071787477E-1,9.132805824E0
2.938155283E0,-1.996212244E0,-7.812566161E-1,9.394820213E0
2.948155283E0,-1.957328916E0,-1.001994491E0,9.479764938E0
2.958155283E0,-2.124826431E0,-1.146162033E0,9.564111710E0
2.968155283E0,-2.263011932E0,-1.085145116E0,9.669396400E0
2.978155283E0,-2.368296146E0,-1.056431174E0,9.693324089E0
2.988155283E0,-2.411366940E0,-1.036690354E0,9.607182503E0
2.998155283E0,-2.387438774E0,-1.079162955E0,9.544371605E0
3.008155283E0,-2.263610125E0,-1.040279627E0,9.416355133E0
3.018155283E0,-2.191825628E0,-9.828519225E-1,9.397810936E0
3.028155283E0,-2.172683001E0,-9.541380405E-1,9.436096191E0
3.038155283E0,-2.187039852E0,-8.392825127E-1,9.431908607E0
3.048155283E0,-2.263610125E0,-9.068797827E-1,9.493523598E0
3.058155283E0,-2.306082726E0,-9.702895880E-1,9.693922997E0
3.068155283E0,-2.291725874E0,-9.936196208E-1,9.617352486E0
3.078155283E0,-2.346760750E0,-9.002995491E-1,8.459226608E0
3.088155283E0,-2.394019127E0,-8.823533654E-1,8.708079338E0
3.098155283E0,-2.641077995E0,-1.045065284E0,9.414560318E0
3.108155283E0,-2.516651154E0,-1.051645517E0,9.707083702E0
3.118155283E0,-2.526222467E0,-1.099501967E0,9.678369522E0
3.128155283E0,-2.330011129E0,-1.109073281E0,9.664610863E0
3.138155283E0,-2.253440619E0,-1.067198873E0,9.885348320E0
3.148155283E0,-2.268395901E0,-1.126421213E0,9.473184586E0
3.158155283E0,-2.258824587E0,-1.183848977E0,9.429515839E0
3.168155283E0,-2.191825628E0,-1.107876897E0,9.487542152E0
3.178155283E0,-2.172683001E0,-1.092921734E0,9.421140671E0
3.188155283E0,-2.225325108E0,-1.159322619E0,9.348159790E0
3.198155283E0,-2.273181438E0,-1.201795220E0,9.271589279E0
3.208155283E0,-2.239681959E0,-1.169492126E0,9.453444481E0
3.218155283E0,-2.206182480E0,-1.088136077E0,9.449256897E0
3.228155283E0,-2.167897224E0,-1.030708313E0,9.449854851E0
3.238155283E0,-2.148754835E0,-9.589236975E-1,9.464810371E0
3.248155283E0,-2.163111687E0,-9.541380405E-1,9.483952522E0
3.258155283E0,-2.139183521E0,-8.967102766E-1,9.489336014E0
3.268155283E0,-2.163111687E0,-8.925228715E-1,9.537193298E0
3.278155283E0,-2.239681959E0,-9.882357717E-1,9.516854286E0
3.288155283E0,-2.277967215E0,-1.021735311E0,9.531210899E0
3.298155283E0,-2.301297188E0,-1.050449133E0,9.554540634E0
3.308155283E0,-2.353939295E0,-1.079162955E0,9.516255379E0
3.318155283E0,-2.321038008E0,-1.002592683E0,9.473783493E0
3.328155283E0,-2.340180635E0,-1.010967612E0,9.348757744E0
3.338155283E0,-2.340180635E0,-1.045065284E0,9.454042435E0
3.348155283E0,-2.316252232E0,-1.040877819E0,9.530612946E0
3.358155283E0,-2.335394859E0,-1.025922656E0,9.415757179E0
3.368155283E0,-2.335394859E0,-9.924231768E-1,9.430712700E0
3.378155283E0,-2.268395901E0,-9.876375198E-1,9.449854851E0
3.388155283E0,-2.263610125E0,-9.930213690E-1,9.512067795E0
3.398155283E0,-2.277967215E0,-1.021735311E0,9.555138588E0
3.408155283E0,-2.258226395E0,-1.022333503E0,9.598209381E0
3.418155283E0,-2.258226395E0,-1.031904817E0,9.574281693E0
3.428155283E0,-2.263610125E0,-1.031306505E0,9.502496719E0
3.438155283E0,-2.258824587E0,-1.068993568E0,9.458827972E0
3.448155283E0,-2.287538528E0,-1.044467092E0,9.382257462E0
3.458155283E0,-2.297109842E0,-1.006181955E0,9.339784622E0
3.468155283E0,-2.292324066E0,-1.016351461E0,9.382855415E0
3.478155283E0,-2.287538528E0,-1.006780148E0,9.421140671E0
3.488155283E0,-2.273181438E0,-1.026520967E0,9.502496719E0
3.498155283E0,-2.282752752E0,-1.012163997E0,9.521639824E0
3.508155283E0,-2.287538528E0,-1.021735311E0,9.526425362E0
3.518155283E0,-2.301895380E0,-1.030708313E0,9.458827972E0
3.528155283E0,-2.306680918E0,-1.016949654E0,9.473783493E0
3.538155283E0,-2.340180635E0,-1.035493970E0,9.387042999E0
3.548155283E0,-2.311466694E0,-1.054636598E0,9.377471924E0
3.558155283E0,-2.282752752E0,-1.021137118E0,9.430712700E0
3.568155283E0,-2.249253273E0,-1.027119160E0,9.588638306E0
3.578155283E0,-2.349751949E0,-1.040279627E0,9.434899330E0
3.588155283E0,-2.325823545E0,-1.021137118E0,9.454042435E0
3.598155283E0,-2.297109842E0,-9.744769931E-1,9.583852768E0
3.608155283E0,-2.301895380E0,-9.451649189E-1,9.492925644E0
3.618155283E0,-2.311466694E0,-9.684949517E-1,9.425926208E0
3.628155283E0,-2.316252232E0,-9.637092948E-1,9.435498238E0
3.638155283E0,-2.316252232E0,-9.924231768E-1,9.425926208E0
3.648155283E0,-2.325823545E0,-9.876375198E-1,9.387641907E0
3.658155283E0,-2.316252232E0,-1.001994491E0,9.411569595E0
3.668155283E0,-2.364108801E0,-1.006780148E0,9.406186104E0
3.678155283E0,-2.320439816E0,-9.978070259E-1,9.550353050E0
3.688155283E0,-2.321038008E0,-9.690931439E-1,9.531210899E0
3.698155283E0,-2.330609322E0,-9.882357717E-1,9.512067795E0
3.708155283E0,-2.325823545E0,-1.011565804E0,9.444471359E0
3.718155283E0,-2.321038008E0,-1.031306505E0,9.477970123E0
3.728155283E0,-2.297109842E0,-1.016351461E0,9.445069313E0
3.738155283E0,-2.273181438E0,-1.011565804E0,9.445069313E0
3.748155283E0,-2.287538528E0,-1.006780148E0,9.445069313E0
3.758155283E0,-2.311466694E0,-1.045065284E0,9.444471359E0
3.768155283E0,-2.316252232E0,-1.059422255E0,9.444471359E0
3.778155283E0,-2.344966173E0,-1.050449133E0,9.477970123E0
3.788155283E0,-2.330609322E0,-9.678967595E-1,9.373284340E0
3.798155283E0,-2.378465652E0,-1.025922656E0,9.463613510E0
3.808155283E0,-2.335394859E0,-1.054636598E0,9.458827972E0
3.818155283E0,-2.292324066E0,-1.031306505E0,9.507282257E0
3.828155283E0,-2.301895380E0,-1.030708313E0,9.449256897E0
3.838155283E0,-2.297109842E0,-1.025922656E0,9.435498238E0
3.848155283E0,-2.325823545E0,-1.045065284E0,9.449256897E0
3.858155283E0,-2.316252232E0,-1.016351461E0,9.406186104E0
3.868155283E0,-2.325823545E0,-1.049850941E0,9.420542717E0
3.878155283E0,-2.364108801E0,-1.049850941E0,9.449256897E0
3.888155283E0,-2.330609322E0,-1.021735311E0,9.482755661E0
3.898155283E0,-2.316252232E0,-9.589236975E-1,9.464211464E0
3.908155283E0,-2.277967215E0,-9.589236975E-1,9.473783493E0
3.918155283E0,-2.282752752E0,-9.732806087E-1,9.468997002E0
3.928155283E0,-2.273181438E0,-9.780662656E-1,9.445069313E0
3.938155283E0,-2.297109842E0,-1.049850941E0,9.439684868E0
3.948155283E0,-2.321038008E0,-1.068993568E0,9.463613510E0
3.958155283E0,-2.354537487E0,-1.121635556E0,9.439086914E0
3.968155283E0,-2.402393818E0,-1.078564763E0,9.429515839E0
3.978155283E0,-2.340180635E0,-1.001994491E0,9.454640388E0
3.988155283E0,-2.292324066E0,-9.738788009E-1,9.488140106E0
3.998155283E0,-2.297109842E0,-8.877372146E-1,9.550951958E0
4.008155283E0,-2.330609322E0,-8.967102766E-1,9.445667267E0
4.018155283E0,-2.306680918E0,-9.397810698E-1,9.464211464E0
4.028155283E0,-2.330609322E0,-9.732806087E-1,9.464211464E0
4.038155283E0,-2.335394859E0,-9.637092948E-1,9.387641907E0
4.048155283E0,-2.311466694E0,-1.044467092E0,9.363115311E0
4.058155283E0,-2.325823545E0,-1.073779106E0,9.420542717E0
4.068155283E0,-2.291725874E0,-1.060020447E0,9.540184021E0
4.078155283E0,-2.320439816E0,-1.061216831E0,9.678967476E0
4.088155283E0,-2.339582443E0,-1.046261668E0,9.659825325E0
4.098155283E0,-2.349751949E0,-1.045663476E0,9.487542152E0
4.108155283E0,-2.383251429E0,-1.221535921E0,9.309276581E0
4.118155283E0,-2.450848579E0,-9.661021233E-1,8.989834785E0
4.158390503E0,-2.092523336E0,-9.499505997E0,8.201399446E-1
4.168390503E0,-1.996810555E0,-9.447462082E0,8.685946465E-1
4.178390503E0,-2.001596212E0,-9.565906525E0,7.244270444E-1
4.188390503E0,-2.063809633E0,-9.503094673E0,6.095715761E-1
4.198390503E0,-2.078166485E0,-9.460622787E0,7.154539824E-1
4.208390503E0,-2.035095692E0,-9.365508080E0,8.069794178E-1
4.218390503E0,-2.197807550E0,-9.494720459E0,7.962117195E-1
4.228390503E0,-2.274377823E0,-9.556933403E0,8.045865893E-1
4.238390503E0,-2.178664923E0,-9.575477600E0,7.190431952E-1
4.248390503E0,-2.188236237E0,-9.499505997E0,7.770691514E-1
4.258390503E0,-2.269592285E0,-9.412766457E0,6.669993401E-1
4.268390503E0,-2.178664923E0,-9.594022751E0,5.988038778E-1
4.278390503E0,-2.106880426E0,-9.551549911E0,6.664010882E-1
4.288390503E0,-2.111665964E0,-9.446265221E0,7.154539824E-1
4.298390503E0,-2.097309113E0,-9.436694145E0,6.771687865E-1
4.308390503E0,-2.039881229E0,-9.565906525E0,7.435696125E-1
4.318390503E0,-2.025524378E0,-9.576076508E0,7.770691514E-1
4.328390503E0,-2.044667006E0,-9.485149384E0,8.063812256E-1
4.338390503E0,-2.011167526E0,-9.389435768E0,8.452646136E-1
4.348390503E0,-2.006381750E0,-9.513264656E0,7.298108935E-1
4.358390503E0,-1.929811478E0,-9.618548393E0,7.052844763E-1
4.368390503E0,-1.992024899E0,-9.585647583E0,7.531409264E-1
4.378390503E0,-2.035095692E0,-9.571290970E0,7.531409264E-1
4.388390503E0,-1.977667928E0,-9.628120422E0,7.435696125E-1
4.398390503E0,-1.963310957E0,-9.695717812E0,8.051848412E-1
4.408390503E0,-1.996810555E0,-9.614959717E0,8.584251404E-1
4.418390503E0,-2.025524378E0,-9.485149384E0,7.968099117E-1
4.428390503E0,-2.006381750E0,-9.384650230E0,7.830511928E-1
4.438390503E0,-2.078166485E0,-9.394221306E0,8.255237937E-1
4.448390503E0,-2.202593327E0,-9.432506561E0,7.914260626E-1
4.458390503E0,-2.193022013E0,-9.461220741E0,7.914260626E-1
4.468390503E0,-2.173879385E0,-9.500103951E0,8.297112584E-1
4.478390503E0,-2.193022013E0,-9.485149384E0,8.009973764E-1
4.488390503E0,-2.135594130E0,-9.590433121E0,7.812566161E-1
4.498390503E0,-2.087737799E0,-9.675976753E0,7.375875711E-1
4.508390503E0,-2.049452543E0,-9.710074425E0,7.519445419E-1
4.518390503E0,-2.039881229E0,-9.695717812E0,7.950153351E-1
4.528390503E0,-2.054238319E0,-9.586245537E0,8.488538265E-1
4.538390503E0,-2.096710920E0,-9.500103951E0,9.158528447E-1
4.548390503E0,-2.121237278E0,-9.428318977E0,9.068797827E-1
4.558390503E0,-2.145165443E0,-9.442676544E0,9.020941257E-1
4.568390503E0,-2.192423820E0,-9.442676544E0,8.919246197E-1
4.578390503E0,-2.245065928E0,-9.485747337E0,8.626125455E-1
4.588390503E0,-2.206780672E0,-9.500701904E0,9.493523836E-1
4.598390503E0,-2.206780672E0,-9.486345291E0,9.397810698E-1
4.608390503E0,-2.197209358E0,-9.486345291E0,9.924231768E-1
4.618390503E0,-2.173281193E0,-9.467801094E0,1.073779106E0
4.628390503E0,-2.173281193E0,-9.439086914E0,1.083948612E0
4.638390503E0,-2.144567251E0,-9.497113228E0,1.164706469E0
4.648390503E0,-2.139781713E0,-9.525827408E0,1.179063320E0
4.658390503E0,-2.158325911E0,-9.492925644E0,1.241276741E0
4.668390503E0,-2.230110645E0,-9.483354568E0,1.222134113E0
4.678390503E0,-2.178066730E0,-9.540184021E0,1.126421213E0
4.688390503E0,-2.211566210E0,-9.568299294E0,1.049252748E0
4.698390503E0,-2.283350945E0,-9.553344727E0,9.535398483E-1
4.708390503E0,-2.264208317E0,-9.540184021E0,1.101894855E0
4.718390503E0,-2.230110645E0,-9.522835732E0,1.403988719E0
4.728390503E0,-2.239083767E0,-9.495916367E0,1.710269928E0
4.738390503E0,-2.343769789E0,-9.477970123E0,1.920838356E0
4.748390503E0,-2.348555326E0,-9.550353050E0,1.968096614E0
4.758390503E0,-2.444268227E0,-9.645467758E0,1.866401672E0
4.768390503E0,-2.554338217E0,-9.769296646E0,1.726421595E0
4.778390503E0,-2.578864574E0,-9.767501831E0,1.525424480E0
4.788390503E0,-2.583650351E0,-9.665806770E0,1.325025558E0
4.798390503E0,-2.617748022E0,-9.617352486E0,1.224527001E0
4.808390503E0,-2.565105915E0,-9.512067795E0,1.162911773E0
4.818390503E0,-2.512463808E0,-9.464211464E0,1.206580877E0
4.828390503E0,-2.426322222E0,-9.406186104E0,1.159322619E0
4.838390503E0,-2.365305185E0,-9.375079155E0,7.627122402E-1
4.848390503E0,-2.293520451E0,-9.297312737E0,5.862415433E-1
4.858390503E0,-2.288734913E0,-9.402596474E0,6.143572330E-1
4.868390503E0,-2.212762833E0,-9.516255379E0,4.414757788E-1
4.878390503E0,-2.078764677E0,-9.205786705E0,5.060819983E-1
4.888390503E0,-2.183450699E0,-9.216554642E0,6.783652306E-1
4.898390503E0,-2.279163599E0,-9.165108681E0,8.362914920E-1
4.908390503E0,-2.408375978E0,-9.150752068E0,8.021938205E-1
4.918390503E0,-2.494517565E0,-9.193224907E0,7.824530005E-1
4.928390503E0,-2.603989124E0,-9.303294182E0,7.286145091E-1
4.938390503E0,-2.685943365E0,-9.427123070E0,6.221339107E-1
4.948390503E0,-2.595016241E0,-9.407979965E0,6.275177598E-1
4.958390503E0,-2.461018085E0,-9.412167549E0,5.515456200E-1
4.968390503E0,-2.360519648E0,-9.407979965E0,6.520441771E-1
4.978390503E0,-2.327019930E0,-9.484550476E0,6.616154313E-1
4.988390503E0,-2.374876499E0,-9.574879646E0,5.982056856E-1
4.998390503E0,-2.489732027E0,-9.535996437E0,4.929214716E-1
5.008390503E0,-2.566302299E0,-9.536594391E0,5.455635786E-1
5.018390503E0,-2.527418852E0,-9.500701904E0,9.481559992E-1
5.028390503E0,-2.613560438E0,-9.496515274E0,9.906286001E-1
5.038390503E0,-2.498106956E0,-9.487542152E0,1.106082320E0
5.048390503E0,-2.288136721E0,-9.410373688E0,1.073779106E0
5.058390503E0,-2.125424623E0,-9.362516403E0,1.031904817E0
5.068390503E0,-1.967498422E0,-9.400801659E0,1.046261668E0
5.078390503E0,-1.972882271E0,-9.414560318E0,9.649057388E-1
5.088390503E0,-2.015354872E0,-9.562317848E0,9.158528447E-1
5.098390503E0,-2.024926186E0,-9.620343208E0,9.732806087E-1
5.108390503E0,-2.125424623E0,-9.543772697E0,9.732806087E-1
5.118390503E0,-2.206780672E0,-9.370891571E0,8.829515576E-1
5.128390503E0,-2.307877541E0,-9.183652878E0,7.926225066E-1
5.138390503E0,-2.336591244E0,-8.978468895E0,8.847461939E-1
5.148390503E0,-2.211566210E0,-8.879764557E0,1.120439172E0
5.158390503E0,-2.082353830E0,-8.766703606E0,1.452443361E0
5.168390503E0,-1.967498422E0,-8.628518105E0,1.558923960E0
5.178390503E0,-1.933998942E0,-8.593224525E0,1.286142230E0
5.188390503E0,-1.944168448E0,-8.577671051E0,1.137787223E0
5.198390503E0,-1.938784599E0,-8.688937187E0,1.266401410E0
5.208390503E0,-1.938186288E0,-8.954540253E0,1.681556106E0
5.218390503E0,-2.033899307E0,-9.069993973E0,1.733001828E0
5.228390503E0,-2.248655081E0,-9.203991890E0,1.707278967E0
5.238390503E0,-2.511865616E0,-9.337391853E0,1.628913999E0
5.248390503E0,-2.641077995E0,-9.409774780E0,1.622931957E0
5.258390503E0,-2.765504837E0,-9.337391853E0,1.599003673E0
5.268390503E0,-2.779861689E0,-9.065806389E0,1.720439434E0
5.278390503E0,-2.721835852E0,-9.057432175E0,1.936391711E0
5.288390503E0,-2.645265341E0,-9.130413055E0,2.127817631E0
5.298390503E0,-2.568695068E0,-8.915059090E0,2.120040894E0
5.308390503E0,-2.597409010E0,-8.626724243E0,1.977667928E0
5.318390503E0,-2.257030010E0,-8.354539871E0,2.842673302E0
5.328390503E0,-2.041077614E0,-8.227122307E0,3.169891834E0
5.338390503E0,-1.887937069E0,-8.270791054E0,3.247060299E0
5.348390503E0,-1.873580098E0,-8.203194618E0,3.223730326E0
5.358390503E0,-1.806581140E0,-8.108079910E0,3.305684566E0
5.368390503E0,-1.701296926E0,-7.889136314E0,3.518645763E0
5.378390503E0,-1.596012712E0,-7.708477974E0,3.692125320E0
5.388390503E0,-1.877767563E0,-8.325826645E0,3.672982693E0
5.398390503E0,-2.317448616E0,-8.976674080E0,3.595216036E0
5.408390503E0,-2.059023857E0,-8.723632812E0,3.732205153E0
5.418390503E0,-2.154138565E0,-8.605786324E0,4.005585194E0
5.428390503E0,-2.817548752E0,-9.108877182E0,4.751547337E0
5.438390503E0,-2.730808735E0,-8.977870941E0,5.216951370E0
5.448390503E0,-2.620140791E0,-8.708678246E0,5.803193092E0
5.458390503E0,-2.605783939E0,-8.450253487E0,5.838487148E0
5.468390503E0,-2.769093990E0,-7.814958572E0,5.295914650E0
5.478390503E0,-2.310868502E0,-7.860422611E0,4.904688358E0
5.488390503E0,-1.948355794E0,-7.765307903E0,4.346562386E0
5.498390503E0,-1.585245013E0,-7.783253670E0,4.170690060E0
5.508390503E0,-2.058425665E0,-8.578269005E0,4.183252335E0
5.518390503E0,-1.527219057E0,-8.298309326E0,4.641477585E0
5.528390503E0,-1.383051515E0,-7.902894974E0,4.965705395E0
5.538390503E0,-1.583450437E0,-7.514061451E0,5.541777134E0
5.548390503E0,-1.635494232E0,-7.158128738E0,5.974878311E0
5.558390503E0,-1.683350682E0,-6.870391846E0,5.876173973E0
5.568390503E0,-1.793420553E0,-6.860820770E0,5.813362598E0
5.578390503E0,-1.549352646E0,-6.952346325E0,5.962316036E0
5.588390503E0,-1.511067510E0,-6.741179466E0,5.915655613E0
5.598390503E0,-1.549352646E0,-6.594619274E0,6.141777515E0
5.608390503E0,-1.625324726E0,-6.738786697E0,6.269793510E0
5.618390503E0,-1.816152334E0,-6.792625427E0,6.393023968E0
5.628390503E0,-2.141576290E0,-6.586842537E0,6.378666878E0
5.638390503E0,-1.955534339E0,-6.374479294E0,6.098706722E0
5.648390503E0,-1.649851203E0,-7.325028419E0,5.887540340E0
5.658390503E0,-1.870589137E0,-7.508079052E0,5.301298618E0
5.668390503E0,-1.923231244E0,-7.187440872E0,5.303092957E0
5.678390503E0,-1.821536183E0,-6.437291145E0,6.223133564E0
5.688390503E0,-1.864008784E0,-5.819344521E0,6.882954121E0
5.698390503E0,-1.782054663E0,-5.654240131E0,7.320242882E0
5.708390503E0,-1.571486235E0,-5.520840168E0,7.402794838E0
5.718390503E0,-1.404586911E0,-4.878366947E0,7.211369038E0
5.728390503E0,-1.381256819E0,-5.068596363E0,7.080960274E0
5.738390503E0,-1.463211060E0,-6.002395630E0,6.399604321E0
5.748390503E0,-1.554138303E0,-5.466403484E0,6.364310265E0
5.758390503E0,-1.734198213E0,-5.267200947E0,7.427919865E0
5.768390503E0,-2.058425665E0,-5.700900078E0,7.788039684E0
5.778390503E0,-2.398206472E0,-5.648257732E0,7.815557003E0
5.788390503E0,-2.398206472E0,-5.656632900E0,7.604988575E0
5.798390503E0,-2.169093609E0,-5.760122299E0,7.360920429E0
5.808390503E0,-2.173879385E0,-5.874379635E0,7.211967468E0
5.818390503E0,-2.522633314E0,-5.732604980E0,7.469794273E0
5.828390503E0,-2.909672260E0,-5.400600910E0,7.872984886E0
5.838390503E0,-3.000001431E0,-5.139184952E0,8.170890808E0
5.848390503E0,-3.071786165E0,-5.115854740E0,8.223533630E0
5.858390503E0,-3.195614576E0,-5.393422127E0,8.283353806E0
5.868390503E0,-2.732603550E0,-4.804787636E0,8.260024071E0
5.878390503E0,-2.478366137E0,-4.719842434E0,8.558527946E0
5.888390503E0,-2.444866419E0,-4.447659016E0,8.646464348E0
5.898390503E0,-2.348555326E0,-4.274179459E0,9.184251785E0
5.908390503E0,-2.416152716E0,-4.490131855E0,8.536395073E0
5.918390503E0,-2.575275421E0,-4.395017147E0,7.846663475E0
5.928390503E0,-2.417349100E0,-4.672584534E0,7.840681553E0
5.938390503E0,-2.292324066E0,-4.269393921E0,8.499904633E0
5.948390503E0,-2.359323025E0,-4.192823410E0,8.437690735E0
5.958390503E0,-2.574079037E0,-3.921238184E0,8.606385231E0
5.968390503E0,-2.688934565E0,-3.525225878E0,8.804988861E0
5.978390503E0,-2.574079037E0,-3.247658491E0,8.831310272E0
5.988390503E0,-2.478366137E0,-2.729014158E0,9.318249702E0
5.998390503E0,-2.564507723E0,-2.158325911E0,9.115457535E0
6.008390503E0,-2.626122952E0,-2.643470764E0,9.351749420E0
6.018390503E0,-2.723032236E0,-3.609572887E0,8.531010628E0
6.028390503E0,-2.713460922E0,-2.810968399E0,8.646464348E0
6.038390503E0,-2.477767944E0,-2.511865616E0,9.750752449E0
6.048390503E0,-2.315055847E0,-2.338984251E0,9.661619186E0
6.058390503E0,-2.382055044E0,-2.100300074E0,9.768099785E0
6.068390503E0,-2.042274237E0,-1.670788407E0,9.978070259E0
6.078390503E0,-1.960918188E0,-1.532602906E0,1.010369396E1
6.088390503E0,-1.998605132E0,-1.505085468E0,1.027119160E1
6.098390503E0,-2.213361025E0,-2.242672920E0,1.034716320E1
6.108390503E0,-2.304886341E0,7.118647546E-2,1.078744221E1
6.118390503E0,-2.413161755E0,-4.277170599E-1,1.170329571E1
6.128390503E0,-2.861815929E0,-8.219345808E-1,1.192941761E1
6.138390503E0,-2.976671457E0,9.738788009E-1,1.247617722E1
6.148390503E0,-3.119044304E0,4.259224236E-1,1.278844070E1
6.158390503E0,-3.396013498E0,1.800000787E0,1.347099304E1
6.168390503E0,-4.055834293E0,2.128415823E0,1.370549011E1
6.178390503E0,-4.068396568E0,8.554341197E-1,1.142752266E1
6.188390503E0,-2.867199659E0,3.655036688E-1,1.184566879E1
6.198390503E0,-1.998006940E0,-3.523431420E-1,1.118824005E1
6.208390503E0,-1.746162295E0,-7.698906660E-1,9.898509026E0
6.218390503E0,-1.116850019E0,-7.118647099E-1,9.149555206E0
6.228390503E0,-8.542376757E-1,-2.069791555E-1,8.785248756E0
6.238390503E0,-6.251249313E-1,3.583251834E-1,8.708079338E0
6.248390503E0,-7.112665176E-1,6.161518097E-1,8.786444664E0
6.258390503E0,-9.122636318E-1,6.203392744E-1,8.818747520E0
6.268390503E0,-1.094118118E0,5.635097623E-1,8.779266357E0
6.278390503E0,-1.150947690E0,7.112665176E-1,8.842676163E0
6.288390503E0,-1.055234790E0,8.685946465E-1,8.968298912E0
6.298390503E0,-9.888339639E-1,1.222732425E0,8.913264275E0
6.308390503E0,-1.094118118E0,1.357328653E0,8.866005898E0
6.318390503E0,-1.246660590E0,1.408176184E0,9.153144836E0
6.328390503E0,-1.575673699E0,1.332802176E0,9.677771568E0
6.338390503E0,-1.350150228E0,1.258624673E0,1.004686451E1
6.348390503E0,-1.622333765E0,8.219345808E-1,1.023470020E1
6.358390503E0,-1.392622828E0,7.172485590E-1,1.012522888E1
6.368390503E0,-1.240080357E0,5.467599630E-1,9.889535904E0
6.378390503E0,-1.164108157E0,2.703889608E-1,9.677771568E0
6.388390503E0,-1.158126116E0,-5.742774159E-2,1.002054310E1
6.398390503E0,-1.487139225E0,-3.714857101E-1,1.051047325E1
6.408390503E0,-1.855633974E0,-6.209374666E-1,1.049791145E1
6.418390503E0,-2.161915302E0,-6.957131624E-1,1.025204849E1
6.428390503E0,-2.070987940E0,-6.041877270E-1,1.016650486E1
6.438390503E0,-1.899302959E0,-3.924229145E-1,9.981659889E0
6.448390503E0,-1.780260086E0,-2.673979402E-1,9.915857315E0
6.458390503E0,-1.627119422E0,-2.243271172E-1,9.859625816E0
6.468390503E0,-1.441077471E0,-1.501496136E-1,9.587442398E0
6.478390503E0,-1.350150228E0,-2.410768867E-1,9.520442963E0
6.488390503E0,-1.364507079E0,-3.936193287E-1,9.495318413E0
6.498390503E0,-1.541576028E0,-5.814558864E-1,9.622735977E0
6.508390503E0,-1.938186288E0,-8.596215248E-1,9.677172661E0
6.518390503E0,-2.244467735E0,-1.012762189E0,9.583852768E0
6.528390503E0,-2.353939295E0,-1.052243710E0,9.789037704E0
6.538390503E0,-2.330011129E0,-9.469595551E-1,9.814162254E0
6.548390503E0,-2.181656122E0,-8.793623447E-1,9.733404160E0
6.558390503E0,-1.986042738E0,-7.926225066E-1,9.672387123E0
6.568390503E0,-1.809572101E0,-7.004988194E-1,9.496515274E0
6.578390503E0,-1.727617979E0,-6.484549642E-1,9.583254814E0
6.588390503E0,-1.607976794E0,-5.964110494E-1,9.680164337E0
6.598390503E0,-1.551147223E0,-5.958128572E-1,9.622735977E0
6.608390503E0,-1.636690736E0,-7.106683254E-1,9.650253296E0
6.618390503E0,-1.732403636E0,-7.304090858E-1,9.726823807E0
6.628390503E0,-1.784447432E0,-7.220342159E-1,9.913464546E0
6.638390503E0,-1.804188251E0,-6.311069727E-1,9.836894035E0
6.648390503E0,-1.756331801E0,-6.059823632E-1,9.722636223E0
6.658390503E0,-1.751546144E0,-5.820540786E-1,9.717850685E0
6.668390503E0,-1.703689694E0,-6.011967063E-1,9.698708534E0
6.678390503E0,-1.698904037E0,-5.868397355E-1,9.655637741E0
6.688390503E0,-1.637288928E0,-6.580262184E-1,9.602995872E0
6.698390503E0,-1.665404558E0,-6.867401004E-1,9.611968994E0
6.708390503E0,-1.573280931E0,-6.113662124E-1,1.059482002E1
6.718390503E0,-1.666002750E0,-8.344969153E-1,9.486943245E0
6.728390503E0,-1.751546144E0,-7.968099117E-1,9.553942680E0
6.738390503E0,-1.698904037E0,-7.746763229E-1,9.888937950E0
6.748390503E0,-1.741974831E0,-8.267202377E-1,9.778867722E0
6.758390503E0,-1.799402595E0,-8.883354068E-1,9.662816048E0
6.768390503E0,-1.861616015E0,-9.349954724E-1,9.528220177E0
6.778390503E0,-1.952543259E0,-1.011565804E0,9.465408325E0
6.788390503E0,-2.000399828E0,-1.030110121E0,9.378668785E0
6.798390503E0,-2.105684042E0,-9.678967595E-1,9.373882294E0
6.808390503E0,-2.191825628E0,-9.056833982E-1,9.316454887E0
6.818390503E0,-2.096710920E0,-9.008977413E-1,9.317052841E0
6.828390503E0,-2.105684042E0,-9.152546525E-1,9.340981483E0
6.838390503E0,-2.120040894E0,-1.015753269E0,9.364311218E0
6.848390503E0,-2.139183521E0,-1.102493048E0,9.473783493E0
6.858390503E0,-2.109871387E0,-1.141974568E0,9.679565430E0
6.868390503E0,-2.129014015E0,-1.147358418E0,9.765707016E0
6.878390503E0,-2.162513494E0,-1.229312658E0,9.812965393E0
6.888390503E0,-2.210369825E0,-1.176670551E0,9.846465111E0
6.898390503E0,-2.205584288E0,-1.152742267E0,9.803394318E0
6.908390503E0,-2.286940336E0,-1.122832060E0,9.621540070E0
6.918390503E0,-2.234298229E0,-1.098305583E0,9.564111710E0
6.928390503E0,-2.220539331E0,-1.231705427E0,9.419944763E0
6.938390503E0,-2.297109842E0,-1.064207911E0,9.449256897E0
6.948390503E0,-2.301895380E0,-1.025922656E0,9.430113792E0
6.958390503E0,-2.321038008E0,-1.054038405E0,9.296115875E0
6.968390503E0,-2.319841623E0,-1.354337573E0,9.921240807E0
6.978390503E0,-2.157727718E0,-9.038887620E-1,9.819545746E0
6.988390503E0,-2.370090723E0,-6.155536175E-1,8.853444099E0
6.998390503E0,-2.605185747E0,-6.741777658E-1,8.286943436E0
7.008390503E0,-2.676970243E0,-6.843472719E-1,8.373085022E0
7.018390503E0,-2.474776745E0,-7.513462901E-1,9.115457535E0
7.028390503E0,-2.368296146E0,-8.644071817E-1,9.622735977E0
7.038390503E0,-2.334796667E0,-8.997012973E-1,9.862018585E0
7.048390503E0,-2.416152716E0,-8.309076428E-1,9.594022751E0
7.058390503E0,-2.584248543E0,-7.764709592E-1,9.334999084E0
7.068390503E0,-2.603390932E0,-7.812566161E-1,9.291928291E0
7.078390503E0,-2.511865616E0,-8.925228715E-1,9.468997002E0
7.088390503E0,-2.507079840E0,-9.176474810E-1,9.650852203E0
7.098390503E0,-2.540579557E0,-9.122636318E-1,9.607182503E0
7.108390503E0,-2.531008244E0,-8.877372146E-1,9.492925644E0
7.118390503E0,-2.531606436E0,-9.008977413E-1,9.296115875E0
7.128390503E0,-2.522035122E0,-8.811569214E-1,9.200403214E0
7.138390503E0,-2.550748825E0,-9.248259664E-1,9.310472488E0
7.148390503E0,-2.607578516E0,-9.637092948E-1,9.424730301E0
7.158390503E0,-2.703291416E0,-1.041476011E0,9.548559189E0
7.168390503E0,-2.636890650E0,-9.631111026E-1,9.285946846E0
7.178390503E0,-2.737389088E0,-9.756734371E-1,9.036494255E0
7.188390503E0,-2.746362209E0,-1.097707391E0,9.399605751E0
7.198390503E0,-2.616551638E0,-1.105484009E0,9.826126099E0
7.208390503E0,-2.688934565E0,-9.254241586E-1,9.419944763E0
7.218390503E0,-2.746960402E0,-9.571290612E-1,9.103493690E0
7.228390503E0,-2.737389088E0,-1.087537885E0,9.260822296E0
7.238390503E0,-2.578864574E0,-9.176474810E-1,9.674181938E0
7.248390503E0,-2.665006161E0,-9.026923180E-1,9.607182503E0
7.258390503E0,-2.703889608E0,-8.769695163E-1,9.295517921E0
7.268390503E0,-2.751745939E0,-9.182456732E-1,9.031708717E0
7.278390503E0,-2.718246460E0,-8.620143533E-1,9.214161873E0
7.288390503E0,-2.708675146E0,-8.434699774E-1,9.310472488E0
7.298390503E0,-2.756531715E0,-8.434699774E-1,9.262018204E0
7.308390503E0,-2.756531715E0,-8.434699774E-1,9.262018204E0
7.318390503E0,-2.756531715E0,-8.434699774E-1,9.262018204E0
7.328390503E0,-2.779861689E0,-8.057830334E-1,9.410971642E0
7.338390503E0,-2.751745939E0,-7.860422134E-1,9.300901413E0
7.348390503E0,-2.746960402E0,-8.147560954E-1,9.243474007E0
7.358390503E0,-2.785245657E0,-8.901300430E-1,9.118449211E0
7.368390503E0,-2.723032236E0,-9.152546525E-1,9.271589279E0
7.378390503E0,-2.703291416E0,-9.020941257E-1,9.458230019E0
7.388390503E0,-2.712862730E0,-8.883354068E-1,9.573084831E0
7.398390503E0,-2.727219582E0,-8.733802438E-1,9.496515274E0
7.408390503E0,-2.698505640E0,-8.446664214E-1,9.477970123E0
7.418390503E0,-2.684148788E0,-8.494520187E-1,9.434899330E0
7.428390503E0,-2.641676188E0,-8.488538265E-1,9.348757744E0
7.438390503E0,-2.656033039E0,-8.536394835E-1,9.339186668E0
7.448390503E0,-2.689532757E0,-8.721838593E-1,9.300303459E0
7.458390503E0,-2.708675146E0,-9.248259664E-1,9.309874535E0
7.468390503E0,-2.684746981E0,-9.200403094E-1,9.329017639E0
7.478390503E0,-2.655434847E0,-9.397810698E-1,9.410373688E0
7.488390503E0,-2.650649309E0,-9.302098155E-1,9.429515839E0
7.498390503E0,-2.636292458E0,-8.877372146E-1,9.487542152E0
7.508390503E0,-2.655434847E0,-9.020941257E-1,9.477970123E0
7.518390503E0,-2.669791937E0,-8.973084688E-1,9.449256897E0
7.528390503E0,-2.646461725E0,-9.110672474E-1,9.405587196E0
7.538390503E0,-2.656033039E0,-8.967102766E-1,9.387042999E0
7.548390503E0,-2.622533560E0,-9.014959335E-1,9.391828537E0
7.558390503E0,-2.632104874E0,-9.254241586E-1,9.343374252E0
7.568390503E0,-2.660818815E0,-9.302098155E-1,9.343374252E0
7.578390503E0,-2.656033039E0,-9.391828775E-1,9.324232101E0
7.588390503E0,-2.627319336E0,-9.445667267E-1,9.362516403E0
7.598390503E0,-2.656033039E0,-9.493523836E-1,9.338588715E0
7.608390503E0,-2.660818815E0,-9.302098155E-1,9.372088432E0
7.618390503E0,-2.650649309E0,-9.212366939E-1,9.467801094E0
7.628390503E0,-2.679363251E0,-9.020941257E-1,9.439086914E0
7.638390503E0,-2.660220623E0,-8.823533654E-1,9.415757179E0
7.648390503E0,-2.645863533E0,-8.775677085E-1,9.406186104E0
7.658390503E0,-2.660818815E0,-8.823533654E-1,9.387042999E0
7.668390503E0,-2.665604353E0,-8.823533654E-1,9.353543282E0
7.678390503E0,-2.656033039E0,-8.440681696E-1,9.367900848E0
7.688390503E0,-2.656033039E0,-8.057830334E-1,9.397212982E0
7.698390503E0,-2.708675146E0,-8.386843204E-1,9.296115875E0
7.708390503E0,-2.708675146E0,-8.626125455E-1,9.314660072E0
7.718390503E0,-2.742174864E0,-8.727820516E-1,9.329017639E0
7.728390503E0,-2.761317253E0,-8.679963946E-1,9.329017639E0
7.738390503E0,-2.755933523E0,-8.967102766E-1,9.391230583E0
7.748390503E0,-2.746362209E0,-8.973084688E-1,9.453444481E0
7.758390503E0,-2.722434044E0,-8.877372146E-1,9.496515274E0
7.768390503E0,-2.703291416E0,-9.020941257E-1,9.434301376E0
7.778390503E0,-2.674577475E0,-8.823533654E-1,9.396614075E0
7.788390503E0,-2.660818815E0,-8.536394835E-1,9.372686386E0
7.798390503E0,-2.684746981E0,-8.967102766E-1,9.343374252E0
7.808390503E0,-2.694318295E0,-9.008977413E-1,9.271589279E0
7.818390503E0,-2.708675146E0,-8.913264275E-1,9.242876053E0
7.828390503E0,-2.656033039E0,-8.817551732E-1,9.320044518E0
7.838390503E0,-2.675175667E0,-8.871390224E-1,9.367302895E0
7.848390503E0,-2.669791937E0,-9.110672474E-1,9.410373688E0
7.858390503E0,-2.660220623E0,-9.164510965E-1,9.453444481E0
7.868390503E0,-2.660220623E0,-9.212366939E-1,9.496515274E0
7.878390503E0,-2.645863533E0,-9.062815905E-1,9.430113792E0
7.888390503E0,-2.641077995E0,-9.158528447E-1,9.400801659E0
7.898390503E0,-2.598007202E0,-9.254241586E-1,9.430113792E0
7.908390503E0,-2.617748022E0,-9.541380405E-1,9.367302895E0
7.918390503E0,-2.608176708E0,-9.014959335E-1,9.353543282E0
7.928390503E0,-2.622533560E0,-9.296116233E-1,9.329017639E0
7.938390503E0,-2.651247501E0,-9.296116233E-1,9.285946846E0
7.948390503E0,-2.636890650E0,-9.493523836E-1,9.352945328E0
7.958390503E0,-2.641676188E0,-9.158528447E-1,9.396016121E0
7.968390503E0,-2.631506681E0,-8.877372146E-1,9.482755661E0
7.978390503E0,-2.641077995E0,-8.781659007E-1,9.482755661E0
7.988390503E0,-2.631506681E0,-8.919246197E-1,9.430113792E0
7.998390503E0,-2.622533560E0,-9.014959335E-1,9.401400566E0
8.008390503E0,-2.632104874E0,-9.206385016E-1,9.376873970E0
8.018390503E0,-2.651247501E0,-9.062815905E-1,9.367302895E0
8.028390503E0,-2.651247501E0,-9.248259664E-1,9.314660072E0
8.038390503E0,-2.660818815E0,-9.014959335E-1,9.352945328E0
8.048390503E0,-2.660818815E0,-9.110672474E-1,9.352945328E0
8.058390503E0,-2.646461725E0,-8.919246197E-1,9.353543282E0
8.068390503E0,-2.646461725E0,-8.769695163E-1,9.324830055E0
8.078390503E0,-2.646461725E0,-8.823533654E-1,9.401400566E0
8.088390503E0,-2.665006161E0,-9.110672474E-1,9.419944763E0
8.098390503E0,-2.655434847E0,-8.973084688E-1,9.463613510E0
8.108390503E0,-2.645863533E0,-8.925228715E-1,9.449256897E0
8.118390503E0,-2.660220623E0,-9.110672474E-1,9.415159225E0
8.128390503E0,-2.641077995E0,-9.349954724E-1,9.396016121E0
8.138390503E0,-2.651247501E0,-9.487541914E-1,9.309874535E0
8.148390503E0,-2.632104874E0,-9.391828775E-1,9.333803177E0
8.158390503E0,-2.646461725E0,-9.302098155E-1,9.352945328E0
8.168390503E0,-2.651247501E0,-9.158528447E-1,9.343374252E0
8.178390503E0,-2.636292458E0,-9.254241586E-1,9.396016121E0
8.188390503E0,-2.674577475E0,-9.302098155E-1,9.376873970E0
8.198390503E0,-2.665604353E0,-8.823533654E-1,9.353543282E0
8.208390503E0,-2.665006161E0,-9.062815905E-1,9.415159225E0
8.218390503E0,-2.665006161E0,-9.158528447E-1,9.415159225E0
8.228390503E0,-2.660220623E0,-9.158528447E-1,9.405587196E0
8.238390503E0,-2.641077995E0,-9.254241586E-1,9.396016121E0
8.248390503E0,-2.636890650E0,-9.206385016E-1,9.391230583E0
8.258390503E0,-2.641077995E0,-9.254241586E-1,9.396016121E0
8.268390503E0,-2.641676188E0,-9.296116233E-1,9.333803177E0
8.278390503E0,-2.646461725E0,-9.349954724E-1,9.348159790E0
8.288390503E0,-2.622533560E0,-9.062815905E-1,9.382257462E0
8.298390503E0,-2.641676188E0,-9.062815905E-1,9.372686386E0
8.308390503E0,-2.627319336E0,-9.104689956E-1,9.334401131E0
8.318390503E0,-2.631506681E0,-9.212366939E-1,9.439086914E0
8.328390503E0,-2.636890650E0,-9.062815905E-1,9.372686386E0
8.338390503E0,-2.631506681E0,-8.823533654E-1,9.415757179E0
8.348390503E0,-2.650649309E0,-9.158528447E-1,9.429515839E0
8.358390503E0,-2.636292458E0,-9.158528447E-1,9.429515839E0
8.368390503E0,-2.617748022E0,-9.254241586E-1,9.376873970E0
8.378390503E0,-2.636292458E0,-9.110672474E-1,9.410971642E0
8.388390503E0,-2.646461725E0,-9.349954724E-1,9.381659508E0
8.398390503E0,-2.651247501E0,-9.302098155E-1,9.343374252E0
8.408390503E0,-2.646461725E0,-9.302098155E-1,9.381659508E0
8.418390503E0,-2.651247501E0,-9.014959335E-1,9.377471924E0
8.428390503E0,-2.656033039E0,-9.014959335E-1,9.362516403E0
8.438390503E0,-2.670390129E0,-8.871390224E-1,9.363115311E0
8.448390503E0,-2.655434847E0,-9.014959335E-1,9.410971642E0
8.458390503E0,-2.665006161E0,-9.062815905E-1,9.405587196E0
8.468390503E0,-2.651247501E0,-8.919246197E-1,9.343972206E0
8.478390503E0,-2.646461725E0,-8.865407705E-1,9.329615593E0
8.488390503E0,-2.660220623E0,-9.062815905E-1,9.400801659E0
8.498390503E0,-2.656033039E0,-9.062815905E-1,9.386445045E0
8.508390503E0,-2.660220623E0,-9.302098155E-1,9.391230583E0
8.518390503E0,-2.660818815E0,-9.206385016E-1,9.386445045E0
8.528390503E0,-2.660818815E0,-9.206385016E-1,9.372088432E0
8.538390503E0,-2.665006161E0,-9.349954724E-1,9.391230583E0
8.548390503E0,-2.656033039E0,-9.158528447E-1,9.386445045E0
8.558390503E0,-2.650649309E0,-9.014959335E-1,9.401400566E0
8.568390503E0,-2.656033039E0,-8.967102766E-1,9.387042999E0
8.578390503E0,-2.665604353E0,-9.206385016E-1,9.372088432E0
8.588390503E0,-2.660818815E0,-9.158528447E-1,9.362516403E0
8.598390503E0,-2.665604353E0,-9.008977413E-1,9.319445610E0
8.608390503E0,-2.665604353E0,-8.967102766E-1,9.343374252E0
8.618390503E0,-2.651247501E0,-9.349954724E-1,9.391230583E0
8.628390503E0,-2.688934565E0,-9.116654396E-1,9.443872452E0
8.638390503E0,-2.679961443E0,-9.062815905E-1,9.367302895E0
8.648390503E0,-2.660220623E0,-8.775677085E-1,9.401400566E0
8.658390503E0,-2.660220623E0,-8.967102766E-1,9.401400566E0
8.668390503E0,-2.679961443E0,-8.967102766E-1,9.376873970E0
8.678390503E0,-2.670390129E0,-9.056833982E-1,9.329017639E0
8.688390503E0,-2.646461725E0,-8.919246197E-1,9.348757744E0
8.698390503E0,-2.632104874E0,-8.679963946E-1,9.343972206E0
8.708390503E0,-2.651247501E0,-8.871390224E-1,9.367900848E0
8.718390503E0,-2.670390129E0,-9.062815905E-1,9.352945328E0
8.728390503E0,-2.684148788E0,-9.062815905E-1,9.405587196E0
8.738390503E0,-2.655434847E0,-8.967102766E-1,9.420542717E0
8.748390503E0,-2.669791937E0,-9.020941257E-1,9.434301376E0
8.758390503E0,-2.670390129E0,-9.254241586E-1,9.357730865E0
8.768390503E0,-2.641077995E0,-9.062815905E-1,9.387042999E0
8.778390503E0,-2.636890650E0,-8.967102766E-1,9.372686386E0
8.788390503E0,-2.636292458E0,-9.158528447E-1,9.381659508E0
8.798390503E0,-2.656033039E0,-9.302098155E-1,9.367302895E0
8.808390503E0,-2.655434847E0,-9.302098155E-1,9.376873970E0
8.818390503E0,-2.665006161E0,-9.397810698E-1,9.410373688E0
8.828390503E0,-2.679363251E0,-9.445667267E-1,9.386445045E0
8.838390503E0,-2.674577475E0,-9.110672474E-1,9.391230583E0
8.848390503E0,-2.670390129E0,-9.110672474E-1,9.376873970E0
8.858390503E0,-2.660818815E0,-8.967102766E-1,9.343374252E0
8.868390503E0,-2.665604353E0,-9.008977413E-1,9.329017639E0
8.878390503E0,-2.684746981E0,-8.919246197E-1,9.338588715E0
8.888390503E0,-2.656033039E0,-9.014959335E-1,9.372088432E0
8.898390503E0,-2.646461725E0,-9.062815905E-1,9.386445045E0
8.908390503E0,-2.641077995E0,-9.014959335E-1,9.410971642E0
8.918390503E0,-2.650649309E0,-9.014959335E-1,9.410971642E0
8.928390503E0,-2.655434847E0,-9.206385016E-1,9.376873970E0
8.938390503E0,-2.684148788E0,-9.014959335E-1,9.400801659E0
8.948390503E0,-2.670390129E0,-8.823533654E-1,9.363115311E0
8.958390503E0,-2.675175667E0,-8.769695163E-1,9.320044518E0
8.968390503E0,-2.651247501E0,-8.769695163E-1,9.334401131E0
8.978390503E0,-2.656033039E0,-8.967102766E-1,9.372686386E0
8.988390503E0,-2.656033039E0,-8.967102766E-1,9.387042999E0
8.998390503E0,-2.670390129E0,-9.206385016E-1,9.338588715E0
9.008390503E0,-2.646461725E0,-9.110672474E-1,9.386445045E0
9.018390503E0,-2.660220623E0,-8.823533654E-1,9.420542717E0
9.028390503E0,-2.669791937E0,-8.925228715E-1,9.473184586E0
9.038390503E0,-2.674577475E0,-9.062815905E-1,9.424730301E0
9.048390503E0,-2.684746981E0,-9.158528447E-1,9.362516403E0
9.058390503E0,-2.675175667E0,-9.158528447E-1,9.357730865E0
9.068390503E0,-2.679961443E0,-8.919246197E-1,9.376873970E0
9.078390503E0,-2.665604353E0,-8.919246197E-1,9.343374252E0
9.088390503E0,-2.651247501E0,-9.110672474E-1,9.343374252E0
9.098390503E0,-2.665604353E0,-9.110672474E-1,9.352945328E0
9.108390503E0,-2.656033039E0,-9.110672474E-1,9.338588715E0
9.118390503E0,-2.641676188E0,-9.062815905E-1,9.352945328E0
9.128390503E0,-2.660818815E0,-9.254241586E-1,9.381659508E0
9.138390503E0,-2.651247501E0,-9.206385016E-1,9.376873970E0
9.148390503E0,-2.665006161E0,-9.206385016E-1,9.396016121E0
9.158390503E0,-2.689532757E0,-9.110672474E-1,9.367302895E0
9.168390503E0,-2.670390129E0,-9.158528447E-1,9.381659508E0
9.178390503E0,-2.670390129E0,-9.158528447E-1,9.372088432E0
9.188390503E0,-2.651247501E0,-9.158528447E-1,9.367302895E0
9.198390503E0,-2.656033039E0,-9.014959335E-1,9.396016121E0
9.208390503E0,-2.651247501E0,-8.967102766E-1,9.396614075E0
9.218390503E0,-2.655434847E0,-9.110672474E-1,9.405587196E0
9.228390503E0,-2.636890650E0,-8.919246197E-1,9.348757744E0
9.238390503E0,-2.660818815E0,-9.062815905E-1,9.357730865E0
9.248390503E0,-2.660818815E0,-9.110672474E-1,9.352945328E0
9.258390503E0,-2.656033039E0,-8.967102766E-1,9.382257462E0
9.268390503E0,-2.679961443E0,-8.967102766E-1,9.376873970E0
9.278390503E0,-2.669791937E0,-9.014959335E-1,9.415159225E0
9.288390503E0,-2.669791937E0,-8.967102766E-1,9.410373688E0
9.298390503E0,-2.679961443E0,-8.919246197E-1,9.362516403E0
9.308390503E0,-2.651247501E0,-8.871390224E-1,9.372686386E0
9.318390503E0,-2.656033039E0,-8.727820516E-1,9.348757744E0
9.328390503E0,-2.670390129E0,-8.871390224E-1,9.338588715E0
9.338390503E0,-2.651247501E0,-8.871390224E-1,9.367900848E0
9.348390503E0,-2.679961443E0,-8.823533654E-1,9.367900848E0
9.358390503E0,-2.656033039E0,-9.062815905E-1,9.352945328E0
9.368390503E0,-2.650649309E0,-8.967102766E-1,9.401400566E0
9.378390503E0,-2.670390129E0,-9.158528447E-1,9.386445045E0
9.388390503E0,-2.660220623E0,-9.206385016E-1,9.396016121E0
9.398390503E0,-2.684148788E0,-9.254241586E-1,9.386445045E0
9.408390503E0,-2.645863533E0,-9.254241586E-1,9.415159225E0
9.418390503E0,-2.674577475E0,-9.014959335E-1,9.400801659E0
9.428390503E0,-2.651247501E0,-9.110672474E-1,9.376873970E0
9.438390503E0,-2.670390129E0,-9.056833982E-1,9.329017639E0
9.448390503E0,-2.651247501E0,-9.110672474E-1,9.381659508E0
9.458390503E0,-2.656033039E0,-9.062815905E-1,9.367302895E0
9.468390503E0,-2.665604353E0,-9.056833982E-1,9.333803177E0
9.478390503E0,-2.656033039E0,-9.158528447E-1,9.362516403E0
9.488390503E0,-2.675175667E0,-9.158528447E-1,9.362516403E0
9.498390503E0,-2.679363251E0,-9.206385016E-1,9.396016121E0
9.508390503E0,-2.665006161E0,-9.110672474E-1,9.396016121E0
9.518390503E0,-2.665006161E0,-8.967102766E-1,9.396016121E0
9.528390503E0,-2.660818815E0,-8.967102766E-1,9.338588715E0
9.538390503E0,-2.656033039E0,-8.775677085E-1,9.377471924E0
9.548390503E0,-2.651247501E0,-8.967102766E-1,9.377471924E0
9.558390503E0,-2.669791937E0,-9.014959335E-1,9.400801659E0
9.568390503E0,-2.679363251E0,-8.919246197E-1,9.400801659E0
9.578390503E0,-2.660220623E0,-9.158528447E-1,9.405587196E0
9.588390503E0,-2.688934565E0,-8.967102766E-1,9.400801659E0
9.598390503E0,-2.703889608E0,-8.871390224E-1,9.343374252E0
9.608390503E0,-2.660818815E0,-8.817551732E-1,9.334401131E0
9.618390503E0,-2.651247501E0,-8.919246197E-1,9.372686386E0
9.628390503E0,-2.632104874E0,-9.110672474E-1,9.377471924E0
9.638390503E0,-2.641676188E0,-9.014959335E-1,9.363115311E0
9.648390503E0,-2.626721144E0,-8.919246197E-1,9.425328255E0
9.658390503E0,-2.665006161E0,-9.164510965E-1,9.429515839E0
9.668390503E0,-2.674577475E0,-9.212366939E-1,9.434301376E0
9.678390503E0,-2.693720102E0,-9.206385016E-1,9.415159225E0
9.688390503E0,-2.679961443E0,-9.206385016E-1,9.376873970E0
9.698390503E0,-2.675175667E0,-8.967102766E-1,9.391230583E0
9.708390503E0,-2.679961443E0,-9.056833982E-1,9.314660072E0
9.718390503E0,-2.651247501E0,-9.110672474E-1,9.352945328E0
9.728390503E0,-2.651247501E0,-9.014959335E-1,9.367302895E0
9.738390503E0,-2.636890650E0,-9.062815905E-1,9.343972206E0
9.748390503E0,-2.632104874E0,-8.871390224E-1,9.367900848E0
9.758390503E0,-2.651247501E0,-8.967102766E-1,9.367900848E0
9.768390503E0,-2.646461725E0,-9.062815905E-1,9.348159790E0
9.778390503E0,-2.675175667E0,-9.110672474E-1,9.362516403E0
9.788390503E0,-2.660220623E0,-9.062815905E-1,9.400801659E0
9.798390503E0,-2.669791937E0,-9.254241586E-1,9.386445045E0
9.808390503E0,-2.689532757E0,-9.296116233E-1,9.329017639E0
9.818390503E0,-2.665006161E0,-9.254241586E-1,9.405587196E0
9.828390503E0,-2.651247501E0,-9.110672474E-1,9.391230583E0
9.838390503E0,-2.674577475E0,-9.158528447E-1,9.391230583E0
9.848390503E0,-2.665604353E0,-9.248259664E-1,9.329017639E0
9.858390503E0,-2.641676188E0,-9.104689956E-1,9.329017639E0
9.868390503E0,-2.627319336E0,-8.967102766E-1,9.353543282E0
9.878390503E0,-2.656033039E0,-9.110672474E-1,9.338588715E0
9.888390503E0,-2.641676188E0,-9.110672474E-1,9.362516403E0
9.898390503E0,-2.645863533E0,-9.110672474E-1,9.415159225E0
9.908390503E0,-2.679363251E0,-9.062815905E-1,9.376873970E0
9.918390503E0,-2.650649309E0,-9.014959335E-1,9.434899330E0
9.928390503E0,-2.665006161E0,-8.919246197E-1,9.430113792E0
9.938390503E0,-2.669791937E0,-8.967102766E-1,9.376873970E0
9.948390503E0,-2.641676188E0,-8.967102766E-1,9.358329773E0
9.958390503E0,-2.651247501E0,-8.769695163E-1,9.329615593E0
9.968390503E0,-2.612962246E0,-9.146564603E-1,9.247661591E0
9.978390503E0,-2.670390129E0,-9.343972206E-1,9.290732384E0
9.988390503E0,-2.674577475E0,-9.493523836E-1,9.405587196E0
9.998390503E0,-2.636292458E0,-8.925228715E-1,9.487542152E0
1.000839050E1,-2.626721144E0,-9.260223508E-1,9.530612946E0
1.001839050E1,-2.655434847E0,-9.457631707E-1,9.534799576E0
1.002839050E1,-2.645863533E0,-9.643075466E-1,9.467801094E0
1.003839050E1,-2.650649309E0,-9.684949517E-1,9.381659508E0
1.004839050E1,-2.636292458E0,-9.254241586E-1,9.405587196E0
1.005839050E1,-2.650649309E0,-9.254241586E-1,9.419944763E0
1.006839050E1,-2.632104874E0,-9.822536707E-1,9.276374817E0
1.007839050E1,-2.565105915E0,-8.907282352E-1,9.248259544E0
1.012075718E1,-1.977667928E0,-9.528220177E0,7.585247755E-1
1.013075718E1,-2.221735716E0,-9.560523033E0,6.041877270E-1
1.014075718E1,-2.241476536E0,-9.492925644E0,4.701896608E-1
1.015075718E1,-2.169093609E0,-9.469595909E0,5.473581553E-1
1.016075718E1,-2.298306227E0,-9.479166985E0,5.371887088E-1
1.017075718E1,-2.494517565E0,-9.492925644E0,4.881358147E-1
1.018075718E1,-2.422732830E0,-9.516854286E0,4.983053207E-1
1.019075718E1,-2.461018085E0,-9.516854286E0,4.498506486E-1
1.020075718E1,-2.528017044E0,-9.516854286E0,4.211367965E-1
1.021075718E1,-2.547159672E0,-9.473184586E0,3.732803464E-1
1.022075718E1,-2.475374937E0,-9.406784058E0,4.360919297E-1
1.023075718E1,-2.456232548E0,-9.363713264E0,4.941178858E-1
1.024075718E1,-2.475374937E0,-9.421140671E0,4.648058116E-1
1.025075718E1,-2.451446772E0,-9.445069313E0,4.983053207E-1
1.026075718E1,-2.427518606E0,-9.436096191E0,5.324030519E-1
1.027075718E1,-2.446661234E0,-9.431310654E0,5.557330847E-1
1.028075718E1,-2.422732830E0,-9.498309135E0,5.748756528E-1
1.029075718E1,-2.370090723E0,-9.493523598E0,5.988038778E-1
1.030075718E1,-2.422732830E0,-9.493523598E0,5.700899959E-1
1.031075718E1,-2.427518606E0,-9.474979401E0,6.083751321E-1
1.032075718E1,-2.413161755E0,-9.474381447E0,6.035895348E-1
1.033075718E1,-2.427518606E0,-9.494122505E0,6.705885530E-1
1.034075718E1,-2.403590441E0,-9.522835732E0,6.753742099E-1
1.035075718E1,-2.389233351E0,-9.565906525E0,6.173482537E-1
1.036075718E1,-2.355733871E0,-9.546165466E0,5.653043389E-1
1.037075718E1,-2.341377020E0,-9.498309135E0,5.748756528E-1
1.038075718E1,-2.346162558E0,-9.440881729E0,6.041877270E-1
1.039075718E1,-2.360519648E0,-9.446265221E0,6.376872063E-1
1.040075718E1,-2.355733871E0,-9.522835732E0,6.466603279E-1
1.041075718E1,-2.360519648E0,-9.522835732E0,6.370890141E-1
1.042075718E1,-2.350948334E0,-9.446265221E0,6.329016089E-1
1.043075718E1,-2.303091764E0,-9.436694145E0,6.520441771E-1
1.044075718E1,-2.303091764E0,-9.483952522E0,5.515456200E-1
1.045075718E1,-2.298306227E0,-9.488738060E0,5.898307562E-1
1.046075718E1,-2.293520451E0,-9.522237778E0,5.796613097E-1
1.047075718E1,-2.298306227E0,-9.527023315E0,5.461617708E-1
1.048075718E1,-2.370090723E0,-9.527023315E0,5.413761139E-1
1.049075718E1,-2.413161755E0,-9.531808853E0,5.413761139E-1
1.050075718E1,-2.470589399E0,-9.555737495E0,5.742774606E-1
1.051075718E1,-2.504088879E0,-9.565308571E0,5.790630579E-1
1.052075718E1,-2.480160713E0,-9.474979401E0,6.466603279E-1
1.053075718E1,-2.475374937E0,-9.403194427E0,6.807580590E-1
1.054075718E1,-2.432304144E0,-9.422337532E0,6.855437160E-1
1.055075718E1,-2.427518606E0,-9.479764938E0,6.705885530E-1
1.056075718E1,-2.379662037E0,-9.465408325E0,6.329016089E-1
1.057075718E1,-2.327019930E0,-9.422337532E0,6.376872063E-1
1.058075718E1,-2.346162558E0,-9.465408325E0,6.233302951E-1
1.059075718E1,-2.341377020E0,-9.479764938E0,6.616154313E-1
1.060075718E1,-2.341377020E0,-9.441479683E0,6.951149702E-1
1.061075718E1,-2.374278307E0,-9.432506561E0,7.716853023E-1
1.062075718E1,-2.426920414E0,-9.409176826E0,8.099704385E-1
1.063075718E1,-2.460419893E0,-9.413364410E0,7.764709592E-1
1.064075718E1,-2.469991207E0,-9.422935486E0,7.812566161E-1
1.065075718E1,-2.493919373E0,-9.413364410E0,7.668996453E-1
1.066075718E1,-2.474776745E0,-9.390034676E0,8.195417523E-1
1.067075718E1,-2.465205431E0,-9.423533440E0,8.530412912E-1
1.068075718E1,-2.450848579E0,-9.437891006E0,8.291130662E-1
1.069075718E1,-2.465205431E0,-9.466604233E0,8.045865893E-1
1.070075718E1,-2.465205431E0,-9.513862610E0,7.471588850E-1
1.071075718E1,-2.479562521E0,-9.533005714E0,7.465606928E-1
1.072075718E1,-2.460419893E0,-9.528818130E0,8.141579032E-1
1.073075718E1,-2.474776745E0,-9.491130829E0,9.002995491E-1
1.074075718E1,-2.465205431E0,-9.439086914E0,9.822536707E-1
1.075075718E1,-2.446063042E0,-9.453444481E0,1.006181955E0
1.076075718E1,-2.402992249E0,-9.414560318E0,9.248259664E-1
1.077075718E1,-2.321636200E0,-9.357132912E0,9.158528447E-1
1.078075718E1,-2.115853310E0,-9.233304024E0,1.051645517E0
1.079075718E1,-2.292324066E0,-9.421140671E0,1.269990563E0
1.080075718E1,-2.258824587E0,-9.317052841E0,1.395613790E0
1.081075718E1,-2.449652195E0,-9.653244972E0,1.579262972E0
1.082075718E1,-2.487937450E0,-9.556933403E0,1.536790371E0
1.083075718E1,-2.631506681E0,-9.699904442E0,1.353141189E0
1.084075718E1,-2.742174864E0,-9.722636223E0,1.156331539E0
1.085075718E1,-2.722434044E0,-9.771091461E0,1.237687469E0
1.086075718E1,-2.732005358E0,-9.766305923E0,1.242473125E0
1.087075718E1,-2.837289333E0,-9.770493507E0,1.203589797E0
1.088075718E1,-2.938386202E0,-9.745368004E0,9.684949517E-1
1.089075718E1,-2.967100143E0,-9.610174179E0,8.111668825E-1
1.090075718E1,-2.967698336E0,-9.518050194E0,6.299105883E-1
1.091075718E1,-2.958127022E0,-9.440881729E0,5.156532526E-1
1.092075718E1,-2.930011272E0,-9.440881729E0,4.630111754E-1
1.093075718E1,-2.824727058E0,-9.454640388E0,4.588237405E-1
1.094075718E1,-2.757728100E0,-9.444471359E0,3.583251834E-1
1.095075718E1,-2.700300455E0,-9.400801659E0,2.632105052E-1
1.096075718E1,-2.648256540E0,-9.314062119E0,1.872383654E-1
1.097075718E1,-2.581257343E0,-9.203991890E0,2.123630047E-1
1.098075718E1,-2.657827854E0,-9.146564484E0,1.980060786E-1
1.099075718E1,-2.676970243E0,-9.022735596E0,2.416750938E-1
1.100075718E1,-2.652443886E0,-8.933005333E0,4.528416991E-1
1.101075718E1,-2.656631231E0,-8.921041489E0,8.027920127E-1
1.102075718E1,-2.647060156E0,-8.960522652E0,1.003789067E0
1.103075718E1,-2.622533560E0,-9.018548965E0,1.108475089E0
1.104075718E1,-2.618346214E0,-9.147162437E0,1.050449133E0
1.105075718E1,-2.460419893E0,-9.324232101E0,1.006780148E0
1.106075718E1,-2.292922258E0,-9.481559753E0,9.487541914E-1
1.107075718E1,-2.154138565E0,-9.567103386E0,8.530412912E-1
1.108075718E1,-2.097309113E0,-9.608977318E0,6.664010882E-1
1.109075718E1,-2.035693884E0,-9.597611427E0,4.271188378E-1
1.110075718E1,-2.059622049E0,-9.611370087E0,2.835494876E-1
1.111075718E1,-2.212762833E0,-9.640084267E0,3.403790295E-1
1.112075718E1,-2.475973129E0,-9.630513191E0,2.865405083E-1
1.113075718E1,-2.562114954E0,-9.482157707E0,2.919243574E-1
1.114075718E1,-2.743371248E0,-9.338588715E0,2.632105052E-1
1.115075718E1,-2.882154942E0,-9.099904060E0,3.409772217E-1
1.116075718E1,-2.815155745E0,-8.789435387E0,4.342973232E-1
1.117075718E1,-2.671586514E0,-8.608179092E0,5.605186820E-1
1.118075718E1,-2.446661234E0,-8.571090698E0,7.674978375E-1
1.119075718E1,-2.173879385E0,-8.562715530E0,9.649057388E-1
1.120075718E1,-2.059023857E0,-8.557929993E0,1.022931695E0
1.121075718E1,-2.145165443E0,-8.614161491E0,8.015955687E-1
1.122075718E1,-2.222334146E0,-8.627322197E0,5.569294691E-1
1.123075718E1,-2.188834429E0,-8.589634895E0,7.250252366E-1
1.124075718E1,-2.039283037E0,-8.520841599E0,1.223928809E0
1.125075718E1,-1.910070658E0,-8.690134048E0,1.439282775E0
1.126075718E1,-1.953141451E0,-8.837292671E0,1.328016520E0
1.127075718E1,-2.048854351E0,-8.821739197E0,1.131206870E0
1.128075718E1,-2.154138565E0,-8.774480820E0,1.174277663E0
1.129075718E1,-2.206182480E0,-8.734400749E0,1.672582984E0
1.130075718E1,-2.219342947E0,-8.599804878E0,2.276172638E0
1.131075718E1,-2.300698996E0,-8.375477791E0,2.416152716E0
1.132075718E1,-2.247458696E0,-8.300103188E0,2.599203587E0
1.133075718E1,-2.237887383E0,-8.310273170E0,2.690130949E0
1.134075718E1,-2.237887383E0,-8.310273170E0,2.690130949E0
1.135075718E1,-2.145763636E0,-8.698508263E0,3.559323788E0
1.136075718E1,-2.144567251E0,-9.171091080E0,4.112065792E0
1.137075718E1,-1.881356835E0,-8.980263710E0,4.238885403E0
1.138075718E1,-1.833500385E0,-9.080761909E0,4.238286972E0
1.139075718E1,-2.469393015E0,-9.587442398E0,4.079164505E0
1.140075718E1,-2.602792740E0,-9.779465675E0,4.106083870E0
1.141075718E1,-2.377867460E0,-9.899705887E0,4.259822369E0
1.142075718E1,-2.879761934E0,-9.853045464E0,4.368097782E0
1.143075718E1,-3.214757204E0,-1.015813065E1,4.192225456E0
1.144075718E1,-3.205784082E0,-1.018505001E1,3.881158352E0
1.145075718E1,-2.670390129E0,-9.802198410E0,3.981058598E0
1.146075718E1,-1.928016901E0,-8.868398666E0,4.674977303E0
1.147075718E1,-1.482951880E0,-7.770691395E0,5.200799942E0
1.148075718E1,-1.344766378E0,-7.321439266E0,5.338387489E0
1.149075718E1,-1.406381488E0,-7.098308563E0,5.626722336E0
1.150075718E1,-1.621137381E0,-6.813562393E0,5.953342915E0
1.151075718E1,-2.118246317E0,-6.600003242E0,6.168098450E0
1.152075718E1,-2.533999205E0,-6.519245148E0,6.229115486E0
1.153075718E1,-2.869592667E0,-6.186643124E0,5.856433392E0
1.154075718E1,-2.879163742E0,-6.564110756E0,5.729613781E0
1.155075718E1,-2.382055044E0,-6.935596466E0,5.484947681E0
1.156075718E1,-2.234298229E0,-6.743572235E0,5.400600910E0
1.157075718E1,-2.224128723E0,-6.677769661E0,5.635695457E0
1.158075718E1,-2.243271112E0,-6.439683914E0,5.790630817E0
1.159075718E1,-1.994417667E0,-6.539584160E0,5.709274769E0
1.160075718E1,-1.669592023E0,-6.419344902E0,5.654240131E0
1.161075718E1,-1.603191137E0,-6.302694798E0,5.396413326E0
1.162075718E1,-1.573280931E0,-6.196214199E0,6.000600815E0
1.163075718E1,-1.850250125E0,-5.897709846E0,6.437291145E0
1.164075718E1,-2.084148407E0,-5.478367329E0,6.716653347E0
1.165075718E1,-1.925624013E0,-5.194219589E0,7.159325123E0
1.166075718E1,-1.869392633E0,-5.096114159E0,6.786643028E0
1.167075718E1,-2.003988981E0,-5.331208706E0,6.133402824E0
1.168075718E1,-2.200798512E0,-5.520241737E0,5.696114540E0
1.169075718E1,-2.082952023E0,-4.795814991E0,4.743172646E0
1.170075718E1,-1.608574986E0,-4.685146809E0,5.454439163E0
1.171075718E1,-1.672582984E0,-5.197210789E0,6.945167542E0
1.172075718E1,-2.106880426E0,-4.628915310E0,7.837690353E0
1.173075718E1,-2.263610125E0,-5.043471813E0,8.274978638E0
1.174075718E1,-2.541775942E0,-6.248856544E0,7.332206726E0
1.175075718E1,-2.944966555E0,-6.263213158E0,6.607779503E0
1.176075718E1,-3.011965513E0,-5.751747608E0,6.610770702E0
1.177075718E1,-2.907279491E0,-5.516054630E0,6.454638958E0
1.178075718E1,-2.529213428E0,-5.602196217E0,6.541976929E0
1.179075718E1,-2.462214470E0,-5.679364681E0,6.680162430E0
1.180075718E1,-2.719442844E0,-5.249254704E0,7.419544697E0
1.181075718E1,-2.790031195E0,-4.731806755E0,8.140980721E0
1.182075718E1,-2.745764017E0,-5.108078003E0,8.598010063E0
1.183075718E1,-2.936591625E0,-5.301896572E0,8.984451294E0
1.184075718E1,-3.372085333E0,-5.400600910E0,8.565108299E0
1.185075718E1,-3.435495138E0,-5.421537876E0,8.081160545E0
1.186075718E1,-3.482753277E0,-5.048855782E0,8.222336769E0
1.187075718E1,-3.406183004E0,-4.710869789E0,8.516654015E0
1.188075718E1,-3.171088219E0,-4.379463673E0,9.075378418E0
1.189075718E1,-2.697907448E0,-3.833301783E0,9.032905579E0
1.190075718E1,-2.420340061E0,-4.301696777E0,8.992227554E0
1.191075718E1,-2.840878725E0,-4.241278172E0,9.245268822E0
1.192075718E1,-2.778665304E0,-3.615555048E0,9.455238342E0
1.193075718E1,-2.854637384E0,-3.063411236E0,9.870393753E0
1.194075718E1,-2.922234535E0,-2.879761934E0,9.626923561E0
1.195075718E1,-3.031706333E0,-3.650849104E0,9.664610863E0
1.196075718E1,-2.998206854E0,-3.683750391E0,9.564111710E0
1.197075718E1,-3.017349243E0,-3.473780155E0,9.684949875E0
1.198075718E1,-2.993421078E0,-1.926820397E0,1.025025368E1
1.199075718E1,-3.290131092E0,-2.752942562E0,9.927821159E0
1.200075718E1,-3.238087177E0,-2.330011129E0,9.662816048E0
1.201075718E1,-3.141776085E0,-1.991426587E0,9.894919395E0
1.202075718E1,-3.633501291E0,-3.719642878E0,9.934999466E0
1.203075718E1,-3.252444267E0,-7.710871100E-1,9.835099220E0
1.204075718E1,-3.185445070E0,-7.202396393E-1,1.018564796E1
1.205075718E1,-3.118446112E0,-1.107278705E0,1.006361389E1
1.206075718E1,-3.233301640E0,-5.294120312E-1,1.022034359E1
1.207075718E1,-3.056232691E0,5.371887088E-1,1.034716320E1
1.208075718E1,-3.022135019E0,1.508674622E0,1.117747307E1
1.209075718E1,-3.302095175E0,1.396211982E0,1.224826050E1
1.210075718E1,-3.382853031E0,2.029113531E0,1.281655598E1
1.211075718E1,-3.367299557E0,2.416152716E0,1.370967770E1
1.212075718E1,-3.406781197E0,1.464407444E0,1.283210945E1
1.213075718E1,-2.920439959E0,3.960121572E-1,1.155374432E1
1.214075718E1,-2.515454769E0,-3.056831062E-1,1.050688457E1
1.215075718E1,-1.584048629E0,-8.165507317E-1,9.683753014E0
1.216075718E1,-1.039681435E0,-1.215553880E0,9.347561836E0
1.217075718E1,-9.014959335E-1,-1.185045362E0,9.046664238E0
1.218075718E1,-1.025922656E0,-1.050449133E0,8.918049812E0
1.219075718E1,-1.168893814E0,-7.746763229E-1,9.172885895E0
1.220075718E1,-1.542174220E0,-3.206382394E-1,9.208179474E0
1.221075718E1,-1.604387641E0,2.344966233E-1,9.220742226E0
1.222075718E1,-1.384846091E0,6.699903607E-1,9.248259544E0
1.223075718E1,-1.150349498E0,8.333004713E-1,9.221340179E0
1.224075718E1,-9.068797827E-1,9.583254457E-1,9.141778946E0
1.225075718E1,-9.690931439E-1,1.088136077E0,9.032307625E0
1.226075718E1,-1.074377418E0,9.302098155E-1,9.011968613E0
1.227075718E1,-1.198205948E0,1.019342422E0,9.342177391E0
1.228075718E1,-1.398006678E0,6.173482537E-1,1.004267693E1
1.229075718E1,-1.329213023E0,4.402793646E-1,1.077009487E1
1.230075718E1,-1.256830096E0,3.230310678E-1,1.120020485E1
1.231075718E1,-1.089930773E0,1.046859920E-1,1.093161011E1
1.232075718E1,-1.095912814E0,-6.400800496E-2,1.038425159E1
1.233075718E1,-1.167697430E0,-3.302095234E-1,1.006181908E1
1.234075718E1,-1.364507079E0,-5.198407173E-1,9.757930756E0
1.235075718E1,-1.752144337E0,-3.756731451E-1,9.585049629E0
1.236075718E1,-2.029113531E0,-2.847459018E-1,9.560523033E0
1.237075718E1,-2.163111687E0,-2.703889608E-1,9.546165466E0
1.238075718E1,-2.062613010E0,-2.243271172E-1,9.833903313E0
1.239075718E1,-1.937588096E0,-6.759724021E-2,1.002233791E1
1.240075718E1,-1.694118381E0,2.871387079E-2,9.994820595E0
1.241075718E1,-1.618146300E0,-7.956135273E-2,9.697511673E0
1.242075718E1,-1.465005636E0,-1.561316848E-1,9.726225853E0
1.243075718E1,-1.584646821E0,-2.231307179E-1,9.720842361E0
1.244075718E1,-1.771286964E0,-4.091726840E-1,9.561120987E0
1.245075718E1,-1.861616015E0,-5.617151260E-1,9.525827408E0
1.246075718E1,-2.048256159E0,-8.009973764E-1,9.447462082E0
1.247075718E1,-2.019542217E0,-8.871390224E-1,9.494720459E0
1.248075718E1,-1.976471543E0,-8.877372146E-1,9.600004196E0
1.249075718E1,-1.923829436E0,-8.590233326E-1,9.586245537E0
1.250075718E1,-1.746760488E0,-8.063812256E-1,9.592227936E0
1.251075718E1,-1.689332843E0,-7.926225066E-1,9.731011391E0
1.252075718E1,-1.718046665E0,-7.172485590E-1,9.851250648E0
1.253075718E1,-1.622333765E0,-7.028916478E-1,9.866206169E0
1.254075718E1,-1.646261930E0,-7.974081635E-1,9.697511673E0
1.255075718E1,-1.670190215E0,-8.638089895E-1,9.586843491E0
1.256075718E1,-1.536192179E0,-8.075776696E-1,9.808179855E0
1.257075718E1,-1.406381488E0,-8.045865893E-1,1.007677460E1
1.258075718E1,-1.554736495E0,-7.609176040E-1,1.000977516E1
1.259075718E1,-1.823330879E0,-7.112665176E-1,9.649655342E0
1.260075718E1,-1.905285001E0,-6.903293133E-1,9.434301376E0
1.261075718E1,-1.847857237E0,-6.568298340E-1,9.391230583E0
1.262075718E1,-1.857428551E0,-6.233302951E-1,9.387042999E0
1.263075718E1,-1.800000787E0,-7.052844763E-1,9.486943245E0
1.264075718E1,-1.655833244E0,-7.393822074E-1,9.655039787E0
1.265075718E1,-1.679761529E0,-8.356932998E-1,9.735796928E0
1.266075718E1,-1.421934843E0,-7.345965505E-1,9.655637741E0
1.267075718E1,-1.369292736E0,-7.196413875E-1,9.565308571E0
1.268075718E1,-1.455434322E0,-7.914260626E-1,9.540781975E0
1.269075718E1,-1.670190215E0,-8.871390224E-1,9.553344727E0
1.270075718E1,-1.593619823E0,-9.164510965E-1,9.658628464E0
1.271075718E1,-1.837687731E0,-6.101697683E-1,9.607182503E0
1.272075718E1,-1.952543259E0,-6.717849374E-1,9.458230019E0
1.273075718E1,-1.613360643E0,-7.579265833E-1,9.540184021E0
1.274075718E1,-1.679761529E0,-1.040279627E0,9.489934921E0
1.275075718E1,-2.010569334E0,-1.263410330E0,9.195617676E0
1.276075718E1,-2.091326952E0,-1.259821177E0,9.348159790E0
1.277075718E1,-2.239681959E0,-1.093519926E0,9.535398483E0
1.278075718E1,-2.378465652E0,-1.212562919E0,9.381061554E0
1.279075718E1,-2.450250387E0,-1.226321578E0,9.294321060E0
1.280075718E1,-2.344367981E0,-1.202991605E0,9.467203140E0
1.281075718E1,-2.005185366E0,-1.294517040E0,9.592825890E0
1.282075718E1,-2.221137524E0,-1.223928809E0,8.983852386E0
1.283075718E1,-1.962712765E0,-9.194421172E-1,9.317651749E0
1.284075718E1,-1.799402595E0,-8.596215248E-1,9.701699257E0
1.285075718E1,-1.708475351E0,-9.170492887E-1,9.716055870E0
1.286075718E1,-1.737189293E0,-8.410771489E-1,9.768698692E0
1.287075718E1,-1.631905079E0,-8.596215248E-1,9.711869240E0
1.288075718E1,-1.875972986E0,-9.212366939E-1,9.604789734E0
1.289075718E1,-1.971685886E0,-9.631111026E-1,9.379266739E0
1.290075718E1,-1.995614052E0,-9.487541914E-1,9.412766457E0
1.291075718E1,-2.009970903E0,-9.158528447E-1,9.513862610E0
1.292075718E1,-1.956730723E0,-9.367900491E-1,9.767501831E0
1.293075718E1,-2.039283037E0,-9.433703423E-1,9.312267303E0
1.294075718E1,-2.029113531E0,-8.817551732E-1,9.360722542E0
1.295075718E1,-1.914258122E0,-6.873382926E-1,9.711869240E0
1.296075718E1,-1.794616938E0,-6.687939167E-1,9.784252167E0
1.297075718E1,-1.756331801E0,-7.166503668E-1,9.817750931E0
1.298075718E1,-1.708475351E0,-7.453642488E-1,9.817750931E0
1.299075718E1,-1.708475351E0,-8.303094506E-1,9.616155624E0
1.300075718E1,-1.727617979E0,-8.925228715E-1,9.558130264E0
1.301075718E1,-1.765903115E0,-9.080761671E-1,9.744172096E0
1.302075718E1,-1.852044702E0,-9.074779749E-1,9.677172661E0
1.303075718E1,-2.062613010E0,-1.036690354E0,9.641879082E0
1.304075718E1,-1.919641972E0,-9.672985673E-1,9.317052841E0
1.305075718E1,-1.915454507E0,-7.776673436E-1,8.806185722E0
1.306075718E1,-1.823929071E0,-8.751748800E-1,9.155537605E0
1.307075718E1,-1.895115495E0,-9.164510965E-1,9.566504478E0
1.308075718E1,-2.028515339E0,-9.798609018E-1,9.790832520E0
1.309075718E1,-2.047657967E0,-1.007976532E0,9.699904442E0
1.310075718E1,-2.024327993E0,-9.457631707E-1,9.628120422E0
1.311075718E1,-1.966900229E0,-9.260223508E-1,9.528220177E0
1.312075718E1,-1.895115495E0,-9.391828775E-1,9.403793335E0
1.313075718E1,-1.852044702E0,-9.589236975E-1,9.470791817E0
1.314075718E1,-1.832902193E0,-9.541380405E-1,9.509077072E0
1.315075718E1,-1.789831281E0,-9.355936646E-1,9.567103386E0
1.316075718E1,-1.780260086E0,-9.302098155E-1,9.543174744E0
1.317075718E1,-1.818545222E0,-9.068797827E-1,9.605388641E0
1.318075718E1,-1.871187329E0,-9.930213690E-1,9.590433121E0
1.319075718E1,-1.871187329E0,-9.834501147E-1,9.614361763E0
1.320075718E1,-1.861616015E0,-9.744769931E-1,9.652647018E0
1.321075718E1,-1.895115495E0,-9.930213690E-1,9.585647583E0
1.322075718E1,-1.856830359E0,-9.499505758E-1,9.561718941E0
1.323075718E1,-1.775474429E0,-9.068797827E-1,9.624530792E0
1.324075718E1,-1.765903115E0,-9.026923180E-1,9.677172661E0
1.325075718E1,-1.789831281E0,-9.212366939E-1,9.614959717E0
1.326075718E1,-1.823330879E0,-9.547362328E-1,9.609575272E0
1.327075718E1,-1.847259045E0,-9.355936646E-1,9.591031075E0
1.328075718E1,-1.875972986E0,-8.967102766E-1,9.519247055E0
1.329075718E1,-1.832902193E0,-8.775677085E-1,9.514460564E0
1.330075718E1,-1.789831281E0,-8.584251404E-1,9.510273933E0
1.331075718E1,-1.813759565E0,-9.349954724E-1,9.533603668E0
1.332075718E1,-1.828116536E0,-9.116654396E-1,9.586245537E0
1.333075718E1,-1.842473388E0,-9.212366939E-1,9.614959717E0
1.334075718E1,-1.871187329E0,-9.266205430E-1,9.648459435E0
1.335075718E1,-1.856830359E0,-9.116654396E-1,9.624530792E0
1.336075718E1,-1.890329838E0,-9.308080077E-1,9.600004196E0
1.337075718E1,-1.885544300E0,-8.925228715E-1,9.543174744E0
1.338075718E1,-1.938186288E0,-1.002592683E0,9.537193298E0
1.339075718E1,-2.158325911E0,-1.083350420E0,9.468997002E0
1.340075718E1,-2.019542217E0,-9.876375198E-1,9.494122505E0
1.341075718E1,-2.158325911E0,-9.786644578E-1,9.574879646E0
1.342075718E1,-2.177468538E0,-1.068993568E0,9.425926208E0
1.343075718E1,-2.081755638E0,-9.355936646E-1,9.589835167E0
1.344075718E1,-2.024327993E0,-9.218349457E-1,9.643074989E0
1.345075718E1,-2.005185366E0,-8.979067206E-1,9.652647018E0
1.346075718E1,-2.053041935E0,-9.068797827E-1,9.604789734E0
1.347075718E1,-2.000399828E0,-9.158528447E-1,9.499505997E0
1.348075718E1,-2.019542217E0,-8.919246197E-1,9.489934921E0
1.349075718E1,-2.043470621E0,-8.488538265E-1,9.432506561E0
1.350075718E1,-2.033899307E0,-7.812566161E-1,9.413962364E0
1.351075718E1,-2.019542217E0,-7.770691514E-1,9.471389771E0
1.352075718E1,-2.076970100E0,-7.627122402E-1,9.476176262E0
1.353075718E1,-2.076970100E0,-7.818548083E-1,9.461818695E0
1.354075718E1,-2.076970100E0,-7.537391186E-1,9.538389206E0
1.355075718E1,-2.096112728E0,-7.585247755E-1,9.600603104E0
1.356075718E1,-2.124826431E0,-7.920243144E-1,9.556933403E0
1.357075718E1,-2.096112728E0,-8.356932998E-1,9.633503914E0
1.358075718E1,-2.115255117E0,-8.261220455E-1,9.600004196E0
1.359075718E1,-2.096112728E0,-8.781659007E-1,9.556335449E0
1.360075718E1,-2.076970100E0,-9.068797827E-1,9.551549911E0
1.361075718E1,-2.048256159E0,-9.302098155E-1,9.474979401E0
1.362075718E1,-2.033899307E0,-9.643075466E-1,9.518050194E0
1.363075718E1,-2.005185366E0,-9.732806087E-1,9.479764938E0
1.364075718E1,-1.971685886E0,-1.006780148E0,9.465408325E0
1.365075718E1,-1.933400750E0,-1.025922656E0,9.527621269E0
1.366075718E1,-1.914258122E0,-1.025922656E0,9.508479118E0
1.367075718E1,-1.919043779E0,-1.055234790E0,9.546764374E0
1.368075718E1,-1.899901152E0,-1.055234790E0,9.561120987E0
1.369075718E1,-1.919043779E0,-1.083948612E0,9.598808289E0
1.370075718E1,-1.947757602E0,-1.112662554E0,9.565308571E0
1.371075718E1,-1.971685886E0,-1.088734269E0,9.603593826E0
1.372075718E1,-1.986042738E0,-1.040877819E0,9.574879646E0
1.373075718E1,-2.000399828E0,-1.026520967E0,9.537193298E0
1.374075718E1,-2.000399828E0,-9.589236975E-1,9.508479118E0
1.375075718E1,-1.971685886E0,-9.164510965E-1,9.533005714E0
1.376075718E1,-1.986042738E0,-8.871390224E-1,9.494720459E0
1.377075718E1,-1.971685886E0,-8.679963946E-1,9.499505997E0
1.378075718E1,-2.009970903E0,-8.440681696E-1,9.480362892E0
1.379075718E1,-1.986042738E0,-8.297112584E-1,9.485747337E0
1.380075718E1,-1.986042738E0,-8.297112584E-1,9.514460564E0
1.381075718E1,-2.000399828E0,-8.494520187E-1,9.523433685E0
1.382075718E1,-2.000399828E0,-8.590233326E-1,9.542576790E0
1.383075718E1,-1.995614052E0,-8.829515576E-1,9.556933403E0
1.384075718E1,-1.995614052E0,-8.877372146E-1,9.576076508E0
1.385075718E1,-1.990828395E0,-8.685946465E-1,9.580862045E0
1.386075718E1,-1.976471543E0,-8.446664214E-1,9.591031075E0
1.387075718E1,-1.966900229E0,-8.207381964E-1,9.586245537E0
1.388075718E1,-1.986042738E0,-8.297112584E-1,9.480961800E0
1.389075718E1,-1.966900229E0,-8.488538265E-1,9.466604233E0
1.390075718E1,-1.962114573E0,-8.536394835E-1,9.490532875E0
1.391075718E1,-1.942971945E0,-9.020941257E-1,9.561718941E0
1.392075718E1,-1.952543259E0,-9.212366939E-1,9.604789734E0
1.393075718E1,-1.957328916E0,-9.218349457E-1,9.623932838E0
1.394075718E1,-1.966900229E0,-9.020941257E-1,9.585647583E0
1.395075718E1,-1.981257200E0,-9.403793216E-1,9.571290970E0
1.396075718E1,-2.019542217E0,-9.505487680E-1,9.623334885E0
1.397075718E1,-2.062613010E0,-9.547362328E-1,9.513264656E0
1.398075718E1,-2.076970100E0,-9.403793216E-1,9.513264656E0
1.399075718E1,-2.081755638E0,-9.397810698E-1,9.479764938E0
1.400075718E1,-2.076970100E0,-9.014959335E-1,9.465408325E0
1.401075718E1,-2.057827473E0,-8.919246197E-1,9.451051712E0
1.402075718E1,-2.067398787E0,-8.871390224E-1,9.475577354E0
1.403075718E1,-2.057827473E0,-9.014959335E-1,9.489336014E0
1.404075718E1,-2.076970100E0,-8.775677085E-1,9.509077072E0
1.405075718E1,-2.100898266E0,-8.733802438E-1,9.537193298E0
1.406075718E1,-2.081755638E0,-9.116654396E-1,9.541978836E0
1.407075718E1,-2.096112728E0,-8.925228715E-1,9.570692062E0
1.408075718E1,-2.096112728E0,-9.068797827E-1,9.541978836E0
1.409075718E1,-2.086541414E0,-9.020941257E-1,9.556335449E0
1.410075718E1,-2.076970100E0,-8.829515576E-1,9.556933403E0
1.411075718E1,-2.072184324E0,-9.116654396E-1,9.575477600E0
1.412075718E1,-2.053041935E0,-9.020941257E-1,9.552147865E0
1.413075718E1,-2.033899307E0,-8.781659007E-1,9.552147865E0
1.414075718E1,-2.019542217E0,-8.584251404E-1,9.489934921E0
1.415075718E1,-2.024327993E0,-8.871390224E-1,9.489934921E0
1.416075718E1,-2.014756680E0,-8.877372146E-1,9.523433685E0
1.417075718E1,-2.024327993E0,-8.877372146E-1,9.552147865E0
1.418075718E1,-2.043470621E0,-8.823533654E-1,9.499505997E0
1.419075718E1,-2.019542217E0,-8.919246197E-1,9.494720459E0
1.420075718E1,-2.024327993E0,-9.595218897E-1,9.570692062E0
1.421075718E1,-2.000399828E0,-9.403793216E-1,9.546764374E0
1.422075718E1,-2.019542217E0,-9.355936646E-1,9.522835732E0
1.423075718E1,-2.009970903E0,-9.445667267E-1,9.494122505E0
1.424075718E1,-2.005185366E0,-9.355936646E-1,9.532406807E0
1.425075718E1,-1.966900229E0,-9.643075466E-1,9.589835167E0
1.426075718E1,-1.995614052E0,-9.355936646E-1,9.571290970E0
1.427075718E1,-1.976471543E0,-9.451649189E-1,9.576076508E0
1.428075718E1,-1.928615093E0,-9.014959335E-1,9.494720459E0
1.429075718E1,-1.890329838E0,-8.973084688E-1,9.571888924E0
1.430075718E1,-1.880758643E0,-9.068797827E-1,9.547960281E0
1.431075718E1,-1.852044702E0,-9.403793216E-1,9.604789734E0
1.432075718E1,-1.856830359E0,-9.355936646E-1,9.600004196E0
1.433075718E1,-1.847259045E0,-9.314061999E-1,9.643673897E0
1.434075718E1,-1.847259045E0,-9.314061999E-1,9.653244972E0
1.435075718E1,-1.861616015E0,-9.026923180E-1,9.643673897E0
1.436075718E1,-1.880758643E0,-9.260223508E-1,9.590433121E0
1.437075718E1,-1.899901152E0,-9.014959335E-1,9.499505997E0
1.438075718E1,-1.871187329E0,-9.164510965E-1,9.543174744E0
1.439075718E1,-1.885544300E0,-9.020941257E-1,9.576674461E0
1.440075718E1,-1.942971945E0,-8.877372146E-1,9.537791252E0
1.441075718E1,-1.942971945E0,-8.823533654E-1,9.509077072E0
1.442075718E1,-1.947757602E0,-8.632107973E-1,9.524032593E0
1.443075718E1,-1.966900229E0,-8.727820516E-1,9.518648148E0
1.444075718E1,-1.990828395E0,-8.919246197E-1,9.480362892E0
1.445075718E1,-1.990828395E0,-9.206385016E-1,9.518648148E0
1.446075718E1,-2.029113531E0,-9.308080077E-1,9.518050194E0
1.447075718E1,-2.014756680E0,-9.164510965E-1,9.547362328E0
1.448075718E1,-2.043470621E0,-9.355936646E-1,9.551549911E0
1.449075718E1,-2.057827473E0,-9.260223508E-1,9.561120987E0
1.450075718E1,-2.033899307E0,-9.068797827E-1,9.518648148E0
1.451075718E1,-2.033899307E0,-8.871390224E-1,9.494720459E0
1.452075718E1,-2.033899307E0,-8.823533654E-1,9.461220741E0
1.453075718E1,-2.024327993E0,-8.919246197E-1,9.480362892E0
1.454075718E1,-2.024327993E0,-8.919246197E-1,9.480362892E0
1.455075718E1,-2.024327993E0,-8.919246197E-1,9.480362892E0
1.456075718E1,-2.019542217E0,-9.164510965E-1,9.580862045E0
1.457075718E1,-2.014756680E0,-9.308080077E-1,9.561120987E0
1.458075718E1,-1.986042738E0,-8.973084688E-1,9.590433121E0
1.459075718E1,-2.009970903E0,-9.254241586E-1,9.498908043E0
1.460075718E1,-2.000399828E0,-9.302098155E-1,9.451051712E0
1.461075718E1,-1.990828395E0,-9.116654396E-1,9.542576790E0
1.462075718E1,-2.000399828E0,-8.925228715E-1,9.533005714E0
1.463075718E1,-2.009970903E0,-8.919246197E-1,9.523433685E0
1.464075718E1,-2.014756680E0,-8.829515576E-1,9.590433121E0
1.465075718E1,-2.005185366E0,-9.068797827E-1,9.585647583E0
1.466075718E1,-2.024327993E0,-9.122636318E-1,9.628718376E0
1.467075718E1,-2.014756680E0,-9.403793216E-1,9.551549911E0
1.468075718E1,-2.005185366E0,-9.355936646E-1,9.537193298E0
1.469075718E1,-1.990828395E0,-9.110672474E-1,9.494720459E0
1.470075718E1,-1.986042738E0,-8.823533654E-1,9.489934921E0
1.471075718E1,-1.952543259E0,-8.536394835E-1,9.500103951E0
1.472075718E1,-1.976471543E0,-8.679963946E-1,9.504291534E0
1.473075718E1,-1.962114573E0,-8.823533654E-1,9.504291534E0
1.474075718E1,-1.962114573E0,-8.781659007E-1,9.537791252E0
1.475075718E1,-1.990828395E0,-9.164510965E-1,9.542576790E0
1.476075718E1,-2.005185366E0,-9.308080077E-1,9.590433121E0
1.477075718E1,-2.029113531E0,-9.403793216E-1,9.585049629E0
1.478075718E1,-2.038684845E0,-9.738788009E-1,9.575477600E0
1.479075718E1,-2.024327993E0,-9.690931439E-1,9.541978836E0
1.480075718E1,-2.029113531E0,-9.595218897E-1,9.565906525E0
1.481075718E1,-2.019542217E0,-9.589236975E-1,9.484550476E0
1.482075718E1,-1.976471543E0,-9.493523836E-1,9.470193863E0
1.483075718E1,-1.990828395E0,-9.589236975E-1,9.518050194E0
1.484075718E1,-2.005185366E0,-9.690931439E-1,9.527621269E0
1.485075718E1,-2.005185366E0,-9.780662656E-1,9.513264656E0
1.486075718E1,-2.000399828E0,-9.684949517E-1,9.508479118E0
1.487075718E1,-1.995614052E0,-9.355936646E-1,9.528220177E0
1.488075718E1,-2.000399828E0,-9.164510965E-1,9.537791252E0
1.489075718E1,-2.029113531E0,-9.068797827E-1,9.552147865E0
1.490075718E1,-2.019542217E0,-8.685946465E-1,9.518648148E0
1.491075718E1,-2.024327993E0,-8.781659007E-1,9.580862045E0
1.492075718E1,-2.033899307E0,-8.877372146E-1,9.576076508E0
1.493075718E1,-2.053041935E0,-9.020941257E-1,9.527621269E0
1.494075718E1,-2.029113531E0,-8.973084688E-1,9.523433685E0
1.495075718E1,-2.019542217E0,-8.494520187E-1,9.552147865E0
1.496075718E1,-2.038684845E0,-8.542376757E-1,9.547362328E0
1.497075718E1,-2.062613010E0,-8.775677085E-1,9.489934921E0
1.498075718E1,-2.029113531E0,-8.488538265E-1,9.504291534E0
1.499075718E1,-2.024327993E0,-8.536394835E-1,9.518648148E0
1.500075718E1,-2.029113531E0,-8.775677085E-1,9.499505997E0
1.501075718E1,-2.019542217E0,-8.871390224E-1,9.509077072E0
1.502075718E1,-2.024327993E0,-9.547362328E-1,9.532406807E0
1.503075718E1,-2.043470621E0,-9.643075466E-1,9.546764374E0
1.504075718E1,-2.029113531E0,-9.451649189E-1,9.556335449E0
1.505075718E1,-1.990828395E0,-9.547362328E-1,9.565906525E0
1.506075718E1,-2.014756680E0,-9.738788009E-1,9.546764374E0
1.507075718E1,-2.024327993E0,-9.780662656E-1,9.513264656E0
1.508075718E1,-2.014756680E0,-9.690931439E-1,9.518050194E0
1.509075718E1,-2.009970903E0,-9.349954724E-1,9.508479118E0
1.510075718E1,-2.000399828E0,-9.547362328E-1,9.532406807E0
1.511075718E1,-2.009970903E0,-9.637092948E-1,9.513264656E0
1.512075718E1,-1.986042738E0,-9.690931439E-1,9.541978836E0
1.513075718E1,-1.971685886E0,-9.690931439E-1,9.570692062E0
1.514075718E1,-1.971685886E0,-9.547362328E-1,9.546764374E0
1.515075718E1,-1.947757602E0,-9.355936646E-1,9.595218658E0
1.516075718E1,-1.981257200E0,-9.308080077E-1,9.547362328E0
1.517075718E1,-1.971685886E0,-9.260223508E-1,9.537791252E0
1.518075718E1,-1.971685886E0,-9.206385016E-1,9.509077072E0
1.519075718E1,-1.981257200E0,-9.206385016E-1,9.504291534E0
1.520075718E1,-1.976471543E0,-9.260223508E-1,9.533005714E0
1.521075718E1,-1.971685886E0,-9.110672474E-1,9.523433685E0
1.522075718E1,-1.976471543E0,-8.919246197E-1,9.504291534E0
1.523075718E1,-1.990828395E0,-9.302098155E-1,9.509077072E0
1.524075718E1,-1.995614052E0,-9.116654396E-1,9.528220177E0
1.525075718E1,-2.005185366E0,-9.164510965E-1,9.556933403E0
1.526075718E1,-1.966900229E0,-8.925228715E-1,9.547362328E0
1.527075718E1,-1.957328916E0,-8.925228715E-1,9.590433121E0
1.528075718E1,-1.890329838E0,-9.026923180E-1,9.696315765E0
1.529075718E1,-1.981257200E0,-9.936196208E-1,9.642477036E0
1.530075718E1,-1.957328916E0,-9.547362328E-1,9.566504478E0
1.531075718E1,-2.038684845E0,-1.034895778E0,9.340383530E0
1.532075718E1,-1.995614052E0,-9.828519225E-1,9.441479683E0
1.533075718E1,-1.947757602E0,-9.547362328E-1,9.561718941E0
1.534075718E1,-1.952543259E0,-9.547362328E-1,9.585647583E0
1.535075718E1,-1.966900229E0,-9.547362328E-1,9.580862045E0
1.536075718E1,-1.966900229E0,-9.451649189E-1,9.556933403E0
1.537075718E1,-1.962114573E0,-9.164510965E-1,9.595218658E0
1.538075718E1,-1.957328916E0,-9.068797827E-1,9.590433121E0
1.539075718E1,-1.971685886E0,-8.979067206E-1,9.628718376E0
1.540075718E1,-1.962114573E0,-8.829515576E-1,9.580862045E0
1.541075718E1,-1.986042738E0,-8.781659007E-1,9.537791252E0
1.542075718E1,-2.014756680E0,-8.733802438E-1,9.523433685E0
1.543075718E1,-2.053041935E0,-8.871390224E-1,9.489934921E0
1.544075718E1,-2.081755638E0,-8.919246197E-1,9.489336014E0
1.545075718E1,-2.053041935E0,-8.632107973E-1,9.461220741E0
1.546075718E1,-2.053041935E0,-8.871390224E-1,9.489934921E0
1.547075718E1,-2.053041935E0,-8.775677085E-1,9.466006279E0
1.548075718E1,-2.043470621E0,-9.062815905E-1,9.513264656E0
1.549075718E1,-2.033899307E0,-9.302098155E-1,9.498908043E0
1.550075718E1,-2.009970903E0,-9.355936646E-1,9.561120987E0
1.551075718E1,-2.019542217E0,-9.068797827E-1,9.571290970E0
1.552075718E1,-2.067398787E0,-9.732806087E-1,9.498908043E0
1.553075718E1,-2.019542217E0,-9.684949517E-1,9.503693581E0
1.554075718E1,-2.019542217E0,-9.738788009E-1,9.589835167E0
1.555075718E1,-2.033899307E0,-9.690931439E-1,9.537193298E0
1.556075718E1,-2.043470621E0,-9.972088337E-1,9.513264656E0
1.557075718E1,-2.033899307E0,-9.780662656E-1,9.513264656E0
1.558075718E1,-2.038684845E0,-9.451649189E-1,9.527621269E0
1.559075718E1,-2.014756680E0,-9.445667267E-1,9.489336014E0
1.560075718E1,-2.024327993E0,-9.403793216E-1,9.537193298E0
1.561075718E1,-2.014756680E0,-9.451649189E-1,9.541978836E0
1.562075718E1,-1.981257200E0,-9.068797827E-1,9.542576790E0
1.563075718E1,-2.005185366E0,-9.164510965E-1,9.537791252E0
1.564075718E1,-2.014756680E0,-9.445667267E-1,9.494122505E0
1.565075718E1,-1.962712765E0,-8.901300430E-1,9.183652878E0
1.566075718E1,-1.995614052E0,-9.260223508E-1,9.580862045E0
1.567075718E1,-1.966302037E0,-9.134600163E-1,9.882357597E0
1.568075718E1,-1.990828395E0,-9.314061999E-1,9.647860527E0
1.569075718E1,-1.981257200E0,-9.314061999E-1,9.633503914E0
1.570075718E1,-1.971685886E0,-9.218349457E-1,9.686145782E0
1.571075718E1,-1.962114573E0,-9.266205430E-1,9.667003632E0
1.572075718E1,-1.986042738E0,-9.403793216E-1,9.600004196E0
1.573075718E1,-2.182254314E0,-1.145563841E0,9.458827972E0
1.574075718E1,-1.866999865E0,-7.178468108E-1,9.180064201E0
1.575075718E1,-1.890329838E0,-7.782655358E-1,9.696913719E0
1.578640407E1,-2.976671457E0,-9.357730865E0,9.900303483E-1
1.579640407E1,-3.086741209E0,-9.256634712E0,8.512466550E-1
1.580640407E1,-3.182454109E0,-9.165108681E0,7.657032609E-1
1.581640407E1,-3.168097258E0,-9.155537605E0,7.848458290E-1
1.582640407E1,-3.077768087E0,-9.193822861E0,7.944171429E-1
1.583640407E1,-3.101696253E0,-9.174081802E0,6.317051649E-1
1.584640407E1,-3.149552822E0,-9.239884377E0,5.210371017E-1
1.585640407E1,-3.116053343E0,-9.187840462E0,5.599204898E-1
1.586640407E1,-3.073580742E0,-9.096315384E0,4.935196638E-1
1.587640407E1,-3.135195971E0,-9.062815666E0,5.030909777E-1
1.588640407E1,-3.250051260E0,-9.144171715E0,4.157529473E-1
1.589640407E1,-3.317050457E0,-9.187242508E0,4.677968323E-1
1.590640407E1,-3.317050457E0,-9.202198029E0,5.539384484E-1
1.591640407E1,-3.312264681E0,-9.198010445E0,6.017948985E-1
1.592640407E1,-3.321835995E0,-9.245866776E0,6.065805554E-1
1.593640407E1,-3.254837036E0,-9.221938133E0,5.976074338E-1
1.594640407E1,-3.216551781E0,-9.183652878E0,6.693921089E-1
1.595640407E1,-3.154338360E0,-9.184251785E0,7.561319470E-1
1.596640407E1,-3.096910715E0,-9.260822296E0,7.794619799E-1
1.597640407E1,-3.034697294E0,-9.227322578E0,7.513462901E-1
1.598640407E1,-3.005983353E0,-9.179466248E0,7.519445419E-1
1.599640407E1,-2.967698336E0,-9.198608398E0,8.093722463E-1
1.600640407E1,-3.010769129E0,-9.313464165E0,8.081758618E-1
1.601640407E1,-3.087339401E0,-9.332606316E0,7.555337548E-1
1.602640407E1,-3.082553864E0,-9.275178909E0,7.459624410E-1
1.603640407E1,-3.158525944E0,-9.356534958E0,7.740781307E-1
1.604640407E1,-3.211168051E0,-9.356534958E0,7.405785918E-1
1.605640407E1,-3.259024382E0,-9.279964447E0,7.214360237E-1
1.606640407E1,-3.249453068E0,-9.251849174E0,8.075776696E-1
1.607640407E1,-3.230310678E0,-9.218349457E0,8.416753411E-1
1.608640407E1,-3.187838078E0,-9.208179474E0,7.507480979E-1
1.609640407E1,-3.125624657E0,-9.207581520E0,6.795616150E-1
1.610640407E1,-3.034697294E0,-9.202795982E0,6.747759581E-1
1.611640407E1,-3.015554667E0,-9.187840462E0,6.221339107E-1
1.612640407E1,-2.962912560E0,-9.178867340E0,6.993024349E-1
1.613640407E1,-2.929413080E0,-9.183652878E0,7.088736892E-1
1.614640407E1,-2.943770170E0,-9.193224907E0,6.993024349E-1
1.615640407E1,-2.991626501E0,-9.235696793E0,6.269195080E-1
1.616640407E1,-3.044268608E0,-9.269794464E0,6.311069727E-1
1.617640407E1,-3.144767046E0,-9.317052841E0,5.826523304E-1
1.618640407E1,-3.168695450E0,-9.331410408E0,5.826523304E-1
1.619640407E1,-3.154338360E0,-9.312865257E0,6.687939167E-1
1.620640407E1,-3.158525944E0,-9.361320496E0,7.405785918E-1
1.621640407E1,-3.115455151E0,-9.376275063E0,8.219345808E-1
1.622640407E1,-3.048455954E0,-9.337990761E0,8.991031051E-1
1.623640407E1,-3.024527788E0,-9.290133476E0,8.997012973E-1
1.624640407E1,-2.981456995E0,-9.300303459E0,9.427721500E-1
1.625640407E1,-2.986242771E0,-9.257232666E0,1.009771109E0
1.626640407E1,-3.043670416E0,-9.214161873E0,9.667003751E-1
1.627640407E1,-3.038884640E0,-9.204590797E0,9.475577474E-1
1.628640407E1,-3.105883837E0,-9.166305542E0,9.236295223E-1
1.629640407E1,-3.196810961E0,-9.165707588E0,8.422735929E-1
1.630640407E1,-3.287738323E0,-9.160921097E0,8.464609981E-1
1.631640407E1,-3.292523861E0,-9.180064201E0,8.081758618E-1
1.632640407E1,-3.316452265E0,-9.247062683E0,8.267202377E-1
1.633640407E1,-3.311666489E0,-9.261420250E0,7.836494446E-1
1.634640407E1,-3.244667530E0,-9.203393936E0,7.555337548E-1
1.635640407E1,-3.206382275E0,-9.203991890E0,7.986045480E-1
1.636640407E1,-3.182454109E0,-9.218349457E0,8.751748800E-1
1.637640407E1,-3.201596737E0,-9.199206352E0,8.751748800E-1
1.638640407E1,-3.235096216E0,-9.194420815E0,8.273184299E-1
1.639640407E1,-3.306880951E0,-9.241679192E0,7.310073376E-1
1.640640407E1,-3.321835995E0,-9.212367058E0,6.783652306E-1
1.641640407E1,-3.384049416E0,-9.174081802E0,6.496513486E-1
1.642640407E1,-3.369692564E0,-9.097511292E0,6.502495408E-1
1.643640407E1,-3.388236761E0,-9.107681274E0,6.885347366E-1
1.644640407E1,-3.383451223E0,-9.122037888E0,7.698906660E-1
1.645640407E1,-3.359523058E0,-9.126823425E0,7.459624410E-1
1.646640407E1,-3.302693367E0,-9.136395454E0,7.124629617E-1
1.647640407E1,-3.278765202E0,-9.288937569E0,6.209374666E-1
1.648640407E1,-3.221337557E0,-9.307481766E0,5.347958803E-1
1.649640407E1,-3.226123095E0,-9.307481766E0,5.108676553E-1
1.650640407E1,-3.159124136E0,-9.327222824E0,6.879364848E-1
1.651640407E1,-3.192623615E0,-9.284749985E0,7.262216806E-1
1.652640407E1,-3.244667530E0,-9.237491608E0,8.512466550E-1
1.653640407E1,-3.249453068E0,-9.223732948E0,9.613165259E-1
1.654640407E1,-3.306880951E0,-9.208778381E0,8.368897438E-1
1.655640407E1,-3.311666489E0,-9.232108116E0,7.549355626E-1
1.656640407E1,-3.302693367E0,-9.312865257E0,6.059823632E-1
1.657640407E1,-3.226123095E0,-9.355937004E0,6.203392744E-1
1.658640407E1,-3.125624657E0,-9.375079155E0,6.496513486E-1
1.659640407E1,-3.072982550E0,-9.422935486E0,6.783652306E-1
1.660640407E1,-3.096910715E0,-9.427123070E0,5.724828243E-1
1.661640407E1,-3.125624657E0,-9.340981483E0,5.300102234E-1
1.662640407E1,-3.149552822E0,-9.239884377E0,4.588237405E-1
1.663640407E1,-3.131008387E0,-9.229117393E0,2.961117923E-1
1.664640407E1,-3.073580742E0,-9.238688469E0,3.152543902E-1
1.665640407E1,-3.016152859E0,-9.272786140E0,4.253242314E-1
1.666640407E1,-3.025724173E0,-9.315258980E0,2.817548811E-1
1.667640407E1,-3.011367321E0,-9.353543282E0,3.433700502E-1
1.668640407E1,-2.973082066E0,-9.343972206E0,3.391826153E-1
1.669640407E1,-2.915654421E0,-9.445667267E0,4.725824594E-1
1.670640407E1,-2.910270452E0,-9.345169067E0,5.258227587E-1
1.671640407E1,-2.876770973E0,-9.288339615E0,5.790630579E-1
1.672640407E1,-2.863012314E0,-9.292527199E0,5.024927258E-1
1.673640407E1,-2.867797852E0,-9.348757744E0,3.631108403E-1
1.674640407E1,-2.848655462E0,-9.367302895E0,2.673979402E-1
1.675640407E1,-2.925225735E0,-9.366703987E0,1.621137410E-1
1.676640407E1,-3.007179976E0,-9.346963882E0,4.187439755E-2
1.677640407E1,-3.025724173E0,-9.248259544E0,2.626122832E-1
1.678640407E1,-3.029911757E0,-9.087342262E0,6.131607890E-1
1.679640407E1,-3.058625460E0,-8.997013092E0,7.094719410E-1
1.680640407E1,-3.211168051E0,-8.964710236E0,8.482556343E-1
1.681640407E1,-3.287738323E0,-9.056833267E0,1.019342422E0
1.682640407E1,-3.306282759E0,-9.205786705E0,1.085743308E0
1.683640407E1,-3.316452265E0,-9.199805260E0,9.182456732E-1
1.684640407E1,-3.288336515E0,-9.183652878E0,6.119644046E-1
1.685640407E1,-3.283550978E0,-9.139386177E0,4.636093974E-1
1.686640407E1,-3.188436270E0,-9.000602722E0,4.552344978E-1
1.687640407E1,-3.092125177E0,-9.001798630E0,7.094719410E-1
1.688640407E1,-3.081955671E0,-9.061020851E0,9.870393276E-1
1.689640407E1,-3.172284603E0,-8.996415138E0,1.283749342E0
1.690640407E1,-3.248854876E0,-8.995218277E0,1.164108157E0
1.691640407E1,-3.263810158E0,-9.032905579E0,9.816554785E-1
1.692640407E1,-3.216551781E0,-9.159725189E0,6.891329288E-1
1.693640407E1,-3.101696253E0,-9.255437851E0,6.789634228E-1
1.694640407E1,-3.029911757E0,-9.293723106E0,7.028916478E-1
1.695640407E1,-3.043670416E0,-9.238089561E0,9.954141974E-1
1.696640407E1,-3.124428272E0,-9.010173798E0,1.250249863E0
1.697640407E1,-3.081357241E0,-8.892327309E0,1.524227977E0
1.698640407E1,-2.947359324E0,-8.687741280E0,1.727019787E0
1.699640407E1,-2.740978241E0,-8.736195564E0,1.832902193E0
1.700640407E1,-2.684148788E0,-8.544769287E0,1.877767563E0
1.701640407E1,-2.650649309E0,-8.754141808E0,1.674975872E0
1.702640407E1,-2.646461725E0,-8.848658562E0,1.444666624E0
1.703640407E1,-2.325823545E0,-8.880961418E0,1.331007600E0
1.704640407E1,-2.316850424E0,-8.899505615E0,1.244866014E0
1.705640407E1,-2.474178553E0,-9.100502968E0,1.189831018E0
1.706640407E1,-2.656033039E0,-9.330811501E0,1.278963685E0
1.707640407E1,-2.813361168E0,-9.404391289E0,1.584048629E0
1.708640407E1,-2.936591625E0,-9.131608963E0,2.298904419E0
1.709640407E1,-3.007179976E0,-8.668000221E0,3.105883837E0
1.710640407E1,-3.049652576E0,-8.268398285E0,3.486940861E0
1.711640407E1,-2.863012314E0,-7.834101200E0,3.686741590E0
1.712640407E1,-2.547757864E0,-7.631907940E0,3.626920938E0
1.713640407E1,-2.638087034E0,-7.670791149E0,3.621536970E0
1.714640407E1,-2.648256540E0,-7.937591076E0,3.457030535E0
1.715640407E1,-2.365903378E0,-8.129016876E0,3.543172121E0
1.716640407E1,-2.389831543E0,-8.501698494E0,3.401995659E0
1.717640407E1,-3.096910715E0,-9.144769669E0,3.595814228E0
1.718640407E1,-3.549752474E0,-9.617352486E0,4.089334011E0
1.719640407E1,-3.530011654E0,-9.495318413E0,4.444668293E0
1.720640407E1,-3.449253798E0,-9.227322578E0,4.532604218E0
1.721640407E1,-3.086143017E0,-8.890532494E0,4.244269371E0
1.722640407E1,-2.890529871E0,-9.080761909E0,4.066602230E0
1.723640407E1,-2.565704107E0,-8.983254433E0,3.838685751E0
1.724640407E1,-2.360519648E0,-8.814560890E0,3.658625841E0
1.725640407E1,-2.398804665E0,-8.641678810E0,3.568296671E0
1.726640407E1,-2.308475733E0,-8.268398285E0,3.566502094E0
1.727640407E1,-2.383849621E0,-8.127222061E0,4.021736622E0
1.728640407E1,-2.478366137E0,-8.083553314E0,4.658825874E0
1.729640407E1,-2.654238462E0,-7.865208149E0,5.679364681E0
1.730640407E1,-2.849851847E0,-7.527221680E0,5.862415314E0
1.731640407E1,-2.980260611E0,-7.379465103E0,5.273781300E0
1.732640407E1,-2.876172781E0,-7.207779884E0,4.561916351E0
1.733640407E1,-2.752344131E0,-7.343572617E0,4.125824451E0
1.734640407E1,-2.651845694E0,-7.718049526E0,4.286741734E0
1.735640407E1,-2.584846735E0,-7.535596848E0,4.259224415E0
1.736640407E1,-2.311466694E0,-7.275377274E0,4.779065132E0
1.737640407E1,-2.181057930E0,-7.159923553E0,5.422136307E0
1.738640407E1,-2.266601324E0,-7.068397999E0,6.049654007E0
1.739640407E1,-2.787638426E0,-6.686144829E0,6.155536175E0
1.740640407E1,-3.251846075E0,-6.407381058E0,5.901896954E0
1.741640407E1,-3.347558975E0,-6.535397053E0,5.685346603E0
1.742640407E1,-3.367299557E0,-6.802794933E0,5.572884083E0
1.743640407E1,-3.224328518E0,-6.686144829E0,5.291727066E0
1.744640407E1,-2.755335331E0,-6.370292187E0,5.405984402E0
1.745640407E1,-2.415554523E0,-6.400202274E0,5.641677380E0
1.746640407E1,-2.467598438E0,-6.384648800E0,6.153741837E0
1.747640407E1,-2.496910334E0,-5.598606586E0,5.971887112E0
1.748640407E1,-2.330011129E0,-5.481956482E0,5.681159019E0
1.749640407E1,-2.261815548E0,-6.449853420E0,5.943771362E0
1.750640407E1,-2.510071039E0,-6.524031162E0,6.263213158E0
1.751640407E1,-2.629712105E0,-6.221937180E0,6.163911343E0
1.752640407E1,-2.324028969E0,-5.911468506E0,6.315257072E0
1.753640407E1,-2.132603168E0,-5.610570908E0,6.418746948E0
1.754640407E1,-2.199602127E0,-5.012963295E0,6.508477688E0
1.755640407E1,-2.309073925E0,-5.870790482E0,6.650850773E0
1.756640407E1,-2.543570518E0,-6.256632805E0,6.336194515E0
1.757640407E1,-2.475973129E0,-6.168098450E0,6.705885410E0
1.758640407E1,-2.542374134E0,-6.154938221E0,6.916453838E0
1.759640407E1,-2.843869686E0,-5.968895912E0,6.935596466E0
1.760640407E1,-3.131008387E0,-6.193821430E0,6.904489517E0
1.761640407E1,-2.844467878E0,-6.110671043E0,6.685546398E0
1.762640407E1,-2.656033039E0,-6.536593437E0,7.464410305E0
1.763640407E1,-2.674577475E0,-6.080760479E0,7.993822098E0
1.764640407E1,-2.737389088E0,-5.581857204E0,7.877171993E0
1.765640407E1,-2.824727058E0,-5.084748268E0,7.204789162E0
1.766640407E1,-2.973082066E0,-5.802595139E0,7.089335442E0
1.767640407E1,-2.838485956E0,-6.263811588E0,7.412366390E0
1.768640407E1,-2.541177750E0,-5.458028316E0,7.950153351E0
1.769640407E1,-2.450250387E0,-5.020142078E0,8.312665939E0
1.770640407E1,-2.661417007E0,-4.844867706E0,7.877171993E0
1.771640407E1,-2.973082066E0,-4.086342812E0,7.416553974E0
1.772640407E1,-3.392424345E0,-5.703292847E0,8.017151833E0
1.773640407E1,-3.889533281E0,-6.032904148E0,7.850851059E0
1.774640407E1,-3.268595695E0,-4.925625324E0,7.711469173E0
1.775640407E1,-2.785245657E0,-4.660620213E0,8.237292290E0
1.776640407E1,-2.574677229E0,-4.608576298E0,8.305487633E0
1.777640407E1,-2.426322222E0,-4.536791801E0,8.315656662E0
1.778640407E1,-2.684148788E0,-3.658027649E0,8.621937752E0
1.779640407E1,-2.555534601E0,-3.022733212E0,8.779864311E0
1.780640407E1,-2.703291416E0,-2.846860647E0,9.034101486E0
1.781640407E1,-2.947359324E0,-2.818146944E0,8.913862228E0
1.782640407E1,-3.038884640E0,-2.639283419E0,8.694320679E0
1.783640407E1,-2.913261652E0,-2.484946251E0,9.208179474E0
1.784640407E1,-2.836092949E0,-2.283350945E0,9.908679008E0
1.785640407E1,-2.782852650E0,-2.036292076E0,1.016889763E1
1.786640407E1,-2.520240545E0,-1.756929994E0,9.927821159E0
1.787640407E1,-2.663211584E0,-2.399402857E0,1.009531879E1
1.788640407E1,-2.682354212E0,-2.347957134E0,1.031127071E1
1.789640407E1,-2.539382935E0,-2.087737799E0,1.007856941E1
1.790640407E1,-2.266601324E0,-1.933998942E0,9.990034103E0
1.791640407E1,-2.223530531E0,-1.810170293E0,1.006720352E1
1.792640407E1,-2.673381090E0,-1.676172256E0,1.002831936E1
1.793640407E1,-2.309672117E0,-1.064806104E0,1.032084274E1
1.794640407E1,-2.060818434E0,-8.602197170E-1,1.053380394E1
1.795640407E1,-1.955534339E0,-6.687939167E-1,1.053559780E1
1.796640407E1,-1.755135417E0,2.931207716E-1,1.054217815E1
1.797640407E1,-1.625923038E0,1.107876897E0,1.110808086E1
1.798640407E1,-1.797009826E0,1.118046403E0,1.177328587E1
1.799640407E1,-1.713261008E0,1.955534339E0,1.332562923E1
1.800640407E1,-1.984248161E0,2.694916487E0,1.440658665E1
1.801640407E1,-2.200798512E0,2.150549412E0,1.343031502E1
1.802640407E1,-1.963310957E0,1.095314622E0,1.236610699E1
1.803640407E1,-1.911865234E0,3.643072546E-1,1.140897846E1
1.804640407E1,-1.611566067E0,-5.353940725E-1,1.067617607E1
1.805640407E1,-1.502692580E0,-1.061216831E0,9.802198410E0
1.806640407E1,-1.704886079E0,-1.500898004E0,8.903095245E0
1.807640407E1,-1.795813441E0,-1.804786444E0,8.503493309E0
1.808640407E1,-1.834696770E0,-1.860419631E0,8.253443718E0
1.809640407E1,-1.797009826E0,-1.448255897E0,8.184649467E0
1.810640407E1,-1.701296926E0,-7.082754970E-1,8.462815285E0
1.811640407E1,-1.524227977E0,2.333002165E-2,8.568697929E0
1.812640407E1,-1.256830096E0,3.924229145E-1,8.504690170E0
1.813640407E1,-1.353141189E0,1.469193101E0,8.568697929E0
1.814640407E1,-1.295115232E0,1.621735573E0,8.651249886E0
1.815640407E1,-1.543370605E0,1.403390527E0,9.070592880E0
1.816640407E1,-1.670788407E0,1.389033556E0,9.850652695E0
1.817640407E1,-1.774278045E0,9.379864931E-1,1.070429230E1
1.818640407E1,-1.721635938E0,6.735795736E-1,1.098066330E1
1.819640407E1,-1.645065546E0,4.636093974E-1,1.085025406E1
1.820640407E1,-1.526022673E0,3.936193287E-1,1.063011456E1
1.821640407E1,-1.469193101E0,2.003988922E-1,1.014556789E1
1.822640407E1,-1.478764415E0,1.531406492E-1,9.977472305E0
1.823640407E1,-1.526620865E0,6.699903309E-2,1.004387283E1
1.824640407E1,-1.588834286E0,4.366901144E-2,9.942776680E0
1.825640407E1,-1.641476393E0,6.759724021E-2,9.937990189E0
1.826640407E1,-1.723430514E0,1.070788130E-1,9.693324089E0
1.827640407E1,-1.670788407E0,2.566302419E-1,9.531808853E0
1.828640407E1,-1.609173179E0,3.481557071E-1,9.456435204E0
1.829640407E1,-1.522433400E0,4.761717021E-1,9.663414001E0
1.830640407E1,-1.575075507E0,4.223332107E-1,9.830313683E0
1.831640407E1,-1.474576950E0,2.638086975E-1,9.925428391E0
1.832640407E1,-1.488335729E0,9.092725813E-2,1.003430176E1
1.833640407E1,-1.540977836E0,4.785645287E-3,1.006241703E1
1.834640407E1,-1.593021631E0,-7.298108935E-2,1.016710377E1
1.835640407E1,-1.760519266E0,-2.733799815E-1,1.008873844E1
1.836640407E1,-1.957328916E0,-3.996013701E-1,9.574281693E0
1.837640407E1,-2.120639086E0,-5.126622319E-1,9.252447128E0
1.838640407E1,-2.111067772E0,-5.796613097E-1,9.237491608E0
1.839640407E1,-2.096710920E0,-6.795616150E-1,9.203393936E0
1.840640407E1,-2.039283037E0,-7.172485590E-1,9.055039406E0
1.841640407E1,-2.067996979E0,-7.034898400E-1,9.169894218E0
1.842640407E1,-2.277967215E0,-7.477570772E-1,9.326624870E0
1.843640407E1,-1.981257200E0,-8.578268886E-1,9.408578873E0
1.844640407E1,-1.918445587E0,-1.089930773E0,9.738189697E0
1.845640407E1,-1.885544300E0,-1.040877819E0,9.604191780E0
1.846640407E1,-1.861616015E0,-1.007976532E0,9.652647018E0
1.847640407E1,-1.832303882E0,-1.013360381E0,9.777072906E0
1.848640407E1,-1.784447432E0,-1.033101201E0,9.868000984E0
1.849640407E1,-1.770090580E0,-1.028913736E0,9.954142570E0
1.850640407E1,-1.799402595E0,-1.103689432E0,9.671191216E0
1.851640407E1,-1.789831281E0,-1.183848977E0,9.483952522E0
1.852640407E1,-1.789831281E0,-1.183848977E0,9.483952522E0
1.853640407E1,-1.641476393E0,-1.078564763E0,9.566504478E0
1.854640407E1,-1.478764415E0,-9.637092948E-1,9.587442398E0
1.855640407E1,-1.473978758E0,-1.098305583E0,9.629316330E0
1.856640407E1,-1.555334687E0,-1.027119160E0,9.701699257E0
1.857640407E1,-1.598405480E0,-9.882357717E-1,9.582057953E0
1.858640407E1,-1.684547186E0,-9.128618240E-1,9.754341125E0
1.859640407E1,-1.794616938E0,-8.452646136E-1,9.735198975E0
1.860640407E1,-1.823330879E0,-8.117650747E-1,9.716055870E0
1.861640407E1,-1.914258122E0,-8.069794178E-1,9.682557106E0
1.862640407E1,-1.871187329E0,-7.070791125E-1,9.759725571E0
1.863640407E1,-1.780260086E0,-6.777670383E-1,9.650253296E0
1.864640407E1,-1.746760488E0,-6.388836503E-1,9.626325607E0
1.865640407E1,-1.761117458E0,-7.298108935E-1,9.625727654E0
1.866640407E1,-1.746760488E0,-6.532405615E-1,9.631111145E0
1.867640407E1,-1.862214208E0,-6.765705943E-1,9.467801094E0
1.868640407E1,-1.828714728E0,-6.000002623E-1,9.497113228E0
1.869640407E1,-1.866999865E0,-5.856433511E-1,9.477970123E0
1.870640407E1,-1.814357758E0,-5.569294691E-1,9.478569031E0
1.871640407E1,-1.819143414E0,-5.084748268E-1,9.416355133E0
1.872640407E1,-1.723430514E0,-5.856433511E-1,9.488140106E0
1.873640407E1,-1.642074585E0,-6.005984545E-1,9.583852768E0
1.874640407E1,-1.637288928E0,-6.622136831E-1,9.564710617E0
1.875640407E1,-1.646261930E0,-7.058826685E-1,9.655039787E0
1.876640407E1,-1.655833244E0,-7.734799385E-1,9.683753014E0
1.877640407E1,-1.703689694E0,-7.920243144E-1,9.616155624E0
1.878640407E1,-1.703689694E0,-7.920243144E-1,9.582656860E0
1.879640407E1,-1.857428551E0,-4.510470629E-1,9.416355133E0
1.880640407E1,-1.655833244E0,-9.320043921E-1,9.806983948E0
1.881640407E1,-1.636690736E0,-9.224331379E-1,9.826126099E0
1.882640407E1,-1.550549030E0,-8.889335990E-1,9.788438797E0
1.883640407E1,-1.478764415E0,-9.068797827E-1,9.649655342E0
1.884640407E1,-1.508076429E0,-9.487541914E-1,9.452845573E0
1.885640407E1,-1.536790371E0,-9.876375198E-1,9.505488396E0
1.886640407E1,-1.545763373E0,-9.254241586E-1,9.568299294E0
1.887640407E1,-1.555334687E0,-9.595218897E-1,9.639486313E0
1.888640407E1,-1.531406522E0,-9.505487680E-1,9.692128181E0
1.889640407E1,-1.569691658E0,-9.990034699E-1,9.811769485E0
1.890640407E1,-1.646261930E0,-1.037288666E0,9.811170578E0
1.891640407E1,-1.655833244E0,-1.022333503E0,9.710672379E0
1.892640407E1,-1.674975872E0,-1.055832982E0,9.686145782E0
1.893640407E1,-1.718046665E0,-1.022333503E0,9.720243454E0
1.894640407E1,-1.622333765E0,-9.493523836E-1,9.548559189E0
1.895640407E1,-1.656431437E0,-9.774680734E-1,9.380462646E0
1.896640407E1,-1.666002750E0,-1.020538807E0,9.457033157E0
1.897640407E1,-1.694716692E0,-9.918249846E-1,9.461818695E0
1.898640407E1,-1.795215130E0,-9.631111026E-1,9.389435768E0
1.899640407E1,-1.804188251E0,-1.087537885E0,9.412766457E0
1.900640407E1,-1.761117458E0,-8.967102766E-1,9.490532875E0
1.901640407E1,-1.655833244E0,-8.638089895E-1,9.597013474E0
1.902640407E1,-1.627119422E0,-8.350951076E-1,9.644869804E0
1.903640407E1,-1.560120344E0,-8.015955687E-1,9.659825325E0
1.904640407E1,-1.488335729E0,-7.543373108E-1,9.703494072E0
1.905640407E1,-1.473978758E0,-7.686942816E-1,9.746564865E0
1.906640407E1,-1.507478237E0,-8.309076428E-1,9.688538551E0
1.907640407E1,-1.517049551E0,-9.068797827E-1,9.620942116E0
1.908640407E1,-1.588834286E0,-9.445667267E-1,9.572486877E0
1.909640407E1,-1.603191137E0,-9.690931439E-1,9.591629982E0
1.910640407E1,-1.564906001E0,-9.260223508E-1,9.601201057E0
1.911640407E1,-1.540977836E0,-8.829515576E-1,9.673583984E0
1.912640407E1,-1.512263894E0,-8.829515576E-1,9.606584549E0
1.913640407E1,-1.555932879E0,-9.062815905E-1,9.530014038E0
1.914640407E1,-1.575075507E0,-9.158528447E-1,9.519845009E0
1.915640407E1,-1.622333765E0,-9.308080077E-1,9.577272415E0
1.916640407E1,-1.694118381E0,-9.924231768E-1,9.538389206E0
1.917640407E1,-1.689332843E0,-1.025922656E0,9.533603668E0
1.918640407E1,-1.770688772E0,-1.074377418E0,9.561718941E0
1.919640407E1,-1.722832322E0,-9.888339639E-1,9.744172096E0
1.920640407E1,-1.660618901E0,-9.176474810E-1,9.783055305E0
1.921640407E1,-1.617548108E0,-9.361918569E-1,9.754341125E0
1.922640407E1,-1.574477315E0,-9.457631707E-1,9.735198975E0
1.923640407E1,-1.560120344E0,-9.403793216E-1,9.649057388E0
1.924640407E1,-1.569691658E0,-9.445667267E-1,9.572486877E0
1.925640407E1,-1.588834286E0,-9.110672474E-1,9.562915802E0
1.926640407E1,-1.656431437E0,-9.637092948E-1,9.500103951E0
1.927640407E1,-1.646860242E0,-7.866404653E-1,9.539586067E0
1.928640407E1,-1.612762451E0,-6.484549642E-1,9.646066666E0
1.929640407E1,-1.737787485E0,-7.292127013E-1,9.496515274E0
1.930640407E1,-1.780858278E0,-7.962117195E-1,9.467203140E0
1.931640407E1,-1.756331801E0,-8.009973764E-1,9.500701904E0
1.932640407E1,-1.751546144E0,-8.452646136E-1,9.672985077E0
1.933640407E1,-1.823330879E0,-8.494520187E-1,9.596415520E0
1.934640407E1,-1.765903115E0,-8.877372146E-1,9.610772133E0
1.935640407E1,-1.832303882E0,-8.321040869E-1,9.888339996E0
1.936640407E1,-2.081157446E0,-9.702895880E-1,9.738189697E0
1.937640407E1,-1.708475351E0,-8.829515576E-1,9.567701340E0
1.938640407E1,-1.666002750E0,-7.052844763E-1,9.564111710E0
1.939640407E1,-1.460219979E0,-9.445667267E-1,9.553942680E0
1.940640407E1,-1.641476393E0,-6.681957245E-1,9.708279610E0
1.941640407E1,-1.584646821E0,-1.120439172E0,9.379864693E0
1.942640407E1,-9.290133715E-1,-5.192425251E-1,9.721440315E0
1.943640407E1,-1.430907965E0,-9.517452121E-1,9.965508461E0
1.944640407E1,-1.986042738E0,-1.165304661E0,9.602995872E0
1.945640407E1,-2.172683001E0,-1.398006678E0,9.289535522E0
1.946640407E1,-2.407179594E0,-1.164108157E0,9.337990761E0
1.947640407E1,-2.301895380E0,-1.101894855E0,9.315258980E0
1.948640407E1,-2.134397745E0,-1.074377418E0,9.555138588E0
1.949640407E1,-2.143370867E0,-9.367900491E-1,9.733404160E0
1.950640407E1,-1.923829436E0,-7.920243144E-1,9.572486877E0
1.951640407E1,-1.957328916E0,-7.968099117E-1,9.600603104E0
1.952640407E1,-1.895115495E0,-7.872386575E-1,9.586843491E0
1.953640407E1,-1.890329838E0,-7.926225066E-1,9.644271851E0
1.954640407E1,-1.880758643E0,-8.398807645E-1,9.610174179E0
1.955640407E1,-1.861616015E0,-8.919246197E-1,9.447462082E0
1.956640407E1,-1.823929071E0,-8.913264275E-1,9.433105469E0
1.957640407E1,-1.808973908E0,-8.925228715E-1,9.600603104E0
1.958640407E1,-1.780260086E0,-8.979067206E-1,9.734601021E0
1.959640407E1,-1.794616938E0,-9.074779749E-1,9.715457916E0
1.960640407E1,-1.804188251E0,-9.170492887E-1,9.667601585E0
1.961640407E1,-1.789831281E0,-9.068797827E-1,9.591031075E0
1.962640407E1,-1.756331801E0,-8.919246197E-1,9.543772697E0
1.963640407E1,-1.780260086E0,-8.877372146E-1,9.605388641E0
1.964640407E1,-1.847259045E0,-9.020941257E-1,9.547960281E0
1.965640407E1,-1.856830359E0,-8.877372146E-1,9.610174179E0
1.966640407E1,-1.899901152E0,-8.255237937E-1,9.576674461E0
1.967640407E1,-1.875972986E0,-8.015955687E-1,9.548559189E0
1.968640407E1,-1.852044702E0,-8.159525394E-1,9.572486877E0
1.969640407E1,-1.852044702E0,-8.835497499E-1,9.672387123E0
1.970640407E1,-1.852044702E0,-8.835497499E-1,9.686744690E0
1.971640407E1,-1.842473388E0,-8.931210637E-1,9.667601585E0
1.972640407E1,-1.856830359E0,-9.068797827E-1,9.576674461E0
1.973640407E1,-1.852044702E0,-9.403793216E-1,9.590433121E0
1.974640407E1,-1.847259045E0,-9.074779749E-1,9.638887405E0
1.975640407E1,-1.899901152E0,-9.266205430E-1,9.671789169E0
1.976640407E1,-1.923829436E0,-8.733802438E-1,9.581459999E0
1.977640407E1,-1.995614052E0,-8.739784956E-1,9.633503914E0
1.978640407E1,-1.957328916E0,-8.404789567E-1,9.629316330E0
1.979640407E1,-1.962114573E0,-8.685946465E-1,9.580862045E0
1.980640407E1,-1.995614052E0,-8.733802438E-1,9.552147865E0
1.981640407E1,-2.019542217E0,-9.158528447E-1,9.485149384E0
1.982640407E1,-2.062613010E0,-9.254241586E-1,9.446265221E0
1.983640407E1,-2.076970100E0,-9.493523836E-1,9.455837250E0
1.984640407E1,-2.091326952E0,-9.308080077E-1,9.527621269E0
1.985640407E1,-2.119442701E0,-1.186241865E0,9.841679573E0
1.986640407E1,-2.234896421E0,-7.531409264E-1,9.480362892E0
1.987640407E1,-2.254637241E0,-7.609176040E-1,9.149555206E0
1.988640407E1,-2.297708035E0,-7.842476368E-1,9.101698875E0
1.989640407E1,-2.331207514E0,-7.896314859E-1,9.130413055E0
1.990640407E1,-2.325823545E0,-8.189435601E-1,9.239884377E0
1.991640407E1,-2.330609322E0,-8.494520187E-1,9.479166985E0
1.992640407E1,-2.330011129E0,-8.548358679E-1,9.594022751E0
1.993640407E1,-2.291725874E0,-8.309076428E-1,9.637691498E0
1.994640407E1,-2.301895380E0,-8.063812256E-1,9.546764374E0
1.995640407E1,-2.301895380E0,-9.014959335E-1,9.426525116E0
1.996640407E1,-2.282154560E0,-8.931210637E-1,9.651450157E0
1.997640407E1,-2.272583246E0,-8.841479421E-1,9.766903877E0
1.998640407E1,-2.291725874E0,-8.787640929E-1,9.670592308E0
1.999640407E1,-2.330609322E0,-8.632107973E-1,9.440881729E0
2.000640407E1,-2.402393818E0,-8.291130662E-1,9.335597992E0
2.001640407E1,-2.435893536E0,-8.099704385E-1,9.292527199E0
2.002640407E1,-2.474178553E0,-7.663014531E-1,9.182456970E0
2.003640407E1,-2.446063042E0,-7.848458290E-1,9.096315384E0
2.004640407E1,-2.297109842E0,-7.860422134E-1,9.360123634E0
2.005640407E1,-2.258226395E0,-8.554341197E-1,9.738189697E0
2.006640407E1,-2.406581402E0,-8.219345808E-1,9.670592308E0
2.007640407E1,-2.440679073E0,-8.057830334E-1,9.445667267E0
2.008640407E1,-2.440679073E0,-7.908278704E-1,9.340383530E0
2.009640407E1,-2.368894339E0,-7.950153351E-1,9.263813019E0
2.010640407E1,-2.354537487E0,-8.626125455E-1,9.349954605E0
2.011640407E1,-2.359323025E0,-8.303094506E-1,9.546165466E0
2.012640407E1,-2.364108801E0,-8.105686903E-1,9.464810371E0
2.013640407E1,-2.402393818E0,-8.105686903E-1,9.388239861E0
2.014640407E1,-2.373680115E0,-7.968099117E-1,9.479764938E0
2.015640407E1,-2.287538528E0,-8.015955687E-1,9.575477600E0
2.016640407E1,-2.301297188E0,-7.974081635E-1,9.604191780E0
2.017640407E1,-2.340180635E0,-8.255237937E-1,9.531808853E0
2.018640407E1,-2.325823545E0,-8.871390224E-1,9.455238342E0
2.019640407E1,-2.349751949E0,-8.727820516E-1,9.460023880E0
2.020640407E1,-2.359323025E0,-9.062815905E-1,9.468997002E0
2.021640407E1,-2.431107759E0,-8.584251404E-1,9.401998520E0
2.022640407E1,-2.388036966E0,-8.392825127E-1,9.431310654E0
2.023640407E1,-2.354537487E0,-8.584251404E-1,9.436096191E0
2.024640407E1,-2.330609322E0,-8.542376757E-1,9.531808853E0
2.025640407E1,-2.334796667E0,-8.500502706E-1,9.617950439E0
2.026640407E1,-2.392822742E0,-8.542376757E-1,9.507881165E0
2.027640407E1,-2.411965132E0,-8.243274093E-1,9.349954605E0
2.028640407E1,-2.416750908E0,-8.147560954E-1,9.316454887E0
2.029640407E1,-2.416750908E0,-8.291130662E-1,9.292527199E0
2.030640407E1,-2.402393818E0,-8.291130662E-1,9.316454887E0
2.031640407E1,-2.397608280E0,-8.488538265E-1,9.426525116E0
2.032640407E1,-2.392822742E0,-8.201399446E-1,9.464810371E0
2.033640407E1,-2.426322222E0,-8.207381964E-1,9.474381447E0
2.034640407E1,-2.411965132E0,-8.159525394E-1,9.469595909E0
2.035640407E1,-2.440679073E0,-8.434699774E-1,9.358927727E0
2.036640407E1,-2.416750908E0,-8.344969153E-1,9.373882294E0
2.037640407E1,-2.378465652E0,-8.584251404E-1,9.455238342E0
2.038640407E1,-2.378465652E0,-8.446664214E-1,9.517452240E0
2.039640407E1,-2.392224550E0,-8.398807645E-1,9.560523033E0
2.040640407E1,-2.378465652E0,-8.255237937E-1,9.517452240E0
2.041640407E1,-2.388036966E0,-8.207381964E-1,9.512666702E0
2.042640407E1,-2.392822742E0,-8.153542876E-1,9.450452805E0
2.043640407E1,-2.407179594E0,-8.297112584E-1,9.407382011E0
2.044640407E1,-2.388036966E0,-7.956135273E-1,9.311669350E0
2.045640407E1,-2.397608280E0,-7.962117195E-1,9.393025398E0
2.046640407E1,-2.378465652E0,-8.153542876E-1,9.445667267E0
2.047640407E1,-2.402393818E0,-8.440681696E-1,9.464810371E0
2.048640407E1,-2.377867460E0,-8.159525394E-1,9.541379929E0
2.049640407E1,-2.363510609E0,-8.165507317E-1,9.598808289E0
2.050640407E1,-2.340180635E0,-8.159525394E-1,9.527621269E0
2.051640407E1,-2.349751949E0,-8.249256015E-1,9.416953087E0
2.052640407E1,-2.316252232E0,-8.482556343E-1,9.373882294E0
2.053640407E1,-2.316252232E0,-8.392825127E-1,9.416953087E0
2.054640407E1,-2.330609322E0,-8.632107973E-1,9.445667267E0
