"Time (s)","Gyroscope x (rad/s)","Gyroscope y (rad/s)","Gyroscope z (rad/s)"
3.859100600E-2,-2.420553565E-1,1.001819000E-1,-5.192354787E-3
4.859100600E-2,-2.605340183E-1,9.651670605E-2,-3.451388702E-2
5.859100600E-2,-2.727513313E-1,9.422596544E-2,-8.582656831E-2
6.859100600E-2,-2.405281961E-1,6.291911751E-2,-1.470658034E-1
7.859100600E-2,-1.875356287E-1,3.191770986E-2,-1.937969923E-1
8.859100600E-2,-1.053742543E-1,4.764748737E-2,-2.133446932E-1
9.859100600E-2,-3.817907721E-2,7.651086897E-2,-1.840231568E-1
1.085910060E-1,5.345070735E-3,2.886338346E-2,-1.269072592E-1
1.185910060E-1,-4.276056774E-3,1.710422710E-2,-3.420845419E-2
1.285910060E-1,-4.214970022E-2,4.123340361E-3,2.809980139E-2
1.385910060E-1,-1.169806942E-1,-1.679879380E-3,5.253441259E-2
1.485910060E-1,-2.028072625E-1,-1.725694351E-2,2.214386500E-2
1.585910060E-1,-2.825251818E-1,-1.908953860E-2,-3.634648025E-2
1.685910060E-1,-3.269656301E-1,-5.803219974E-3,-7.651086897E-2
1.785910060E-1,-3.539963961E-1,-4.734205548E-3,-1.117883399E-1
1.885910060E-1,-3.390302062E-1,-3.252857551E-2,-1.363756657E-1
1.985910060E-1,-3.145956099E-1,-1.893682219E-2,-1.192714423E-1
2.085910060E-1,-2.852740586E-1,5.650503561E-3,-7.040221989E-2
2.185910060E-1,-2.260201424E-1,-2.229658142E-2,-2.290744567E-3
2.285910060E-1,-1.986839175E-1,-4.673119262E-2,5.497787148E-2
2.385910060E-1,-2.057088763E-1,-7.773260027E-2,8.277224004E-2
2.485910060E-1,-2.278527319E-1,-8.032877743E-2,8.048149943E-2
2.585910060E-1,-2.625193298E-1,-5.864306539E-2,6.719517708E-2
2.685910060E-1,-3.141374588E-1,-5.299255997E-2,6.979135424E-2
2.785910060E-1,-3.558290005E-1,-5.849034712E-2,6.856962293E-2
2.885910060E-1,-3.813326359E-1,-8.903361112E-2,1.466076635E-2
2.985910060E-1,-4.146247804E-1,-7.192938030E-2,-3.756821156E-2
3.085910060E-1,-4.819726646E-1,1.710422710E-2,-9.804387391E-2
3.185910060E-1,-5.630650520E-1,1.293507218E-1,-1.559233516E-1
3.285910060E-1,-6.776022911E-1,2.706133127E-1,-2.293798923E-1
3.385910060E-1,-8.405506015E-1,3.562871516E-1,-3.055853248E-1
3.485910060E-1,-1.005789638E0,4.124867618E-1,-3.623957932E-1
3.585910060E-1,-1.233336926E0,5.600107312E-1,-4.662429094E-1
3.685910060E-1,-1.518916488E0,8.361217976E-1,-6.388123035E-1
3.785910060E-1,-1.856572151E0,1.175610185E0,-8.378016949E-1
3.885910060E-1,-2.132988691E0,1.396743417E0,-1.020603061E0
3.985910060E-1,-2.459648848E0,1.833664775E0,-1.339932919E0
4.085910060E-1,-2.840065241E0,1.913382649E0,-1.650099754E0
4.185910060E-1,-3.249955893E0,1.774716258E0,-1.771051049E0
4.285910060E-1,-3.537215233E0,2.115884542E0,-1.755321264E0
4.385910060E-1,-3.766900539E0,3.149926662E0,-1.638187885E0
4.485910060E-1,-3.811493635E0,3.856850386E0,-1.651474237E0
4.585910060E-1,-3.757279396E0,3.706730366E0,-1.891696930E0
4.685910060E-1,-3.639382362E0,3.347083330E0,-2.223396778E0
4.785910060E-1,-3.517820120E0,3.105791569E0,-2.481334686E0
4.885910060E-1,-3.363424063E0,2.668106556E0,-2.819601297E0
4.985910060E-1,-3.107776880E0,2.176970959E0,-3.070514202E0
5.085910060E-1,-2.821433783E0,1.583209991E0,-3.087618351E0
5.185910060E-1,-2.632829189E0,9.636399150E-1,-2.836094618E0
5.285910060E-1,-2.462550402E0,1.227839142E-1,-2.303725481E0
5.385910060E-1,-2.323120594E0,-5.829181671E-1,-1.693776608E0
5.485910060E-1,-2.352900267E0,-8.573493958E-1,-1.111621976E0
5.585910060E-1,-2.474920511E0,-5.610797405E-1,-6.142250299E-1
5.685910060E-1,-2.770579338E0,-1.069014147E-1,-2.229658216E-1
5.785910060E-1,-2.877786160E0,-5.390885845E-2,-4.550946131E-2
5.885910060E-1,-3.169474363E0,-3.310889602E-1,-1.514945775E-1
5.985910060E-1,-3.515529394E0,-3.660610020E-1,-2.854267955E-1
6.085910060E-1,-3.322954178E0,-5.703954101E-1,-4.124867618E-1
6.185910060E-1,-2.180330753E0,-9.851729274E-1,-4.899139404E-1
6.285910060E-1,-7.391469479E-1,-8.541423082E-1,-4.624249935E-1
6.385910060E-1,1.036943719E-1,-6.898195744E-1,-5.618433356E-1
6.485910060E-1,3.856086731E-1,-5.293147564E-1,-6.262896061E-1
6.585910060E-1,3.798054755E-1,-4.482223690E-1,-6.721044779E-1
6.685910060E-1,2.267837226E-1,-4.964807332E-1,-6.843217611E-1
6.785910060E-1,1.960877478E-1,-3.761402667E-1,-5.529857874E-1
6.885910060E-1,1.866193265E-1,-1.608102769E-1,-2.698497176E-1
6.985910060E-1,1.492038369E-1,1.389718428E-2,-2.229658142E-2
7.085910060E-1,4.734205827E-2,2.306016348E-2,1.085812971E-1
7.185910060E-1,-7.040221989E-2,6.108652335E-3,6.841690838E-2
7.285910060E-1,-1.550070494E-1,1.527163084E-3,5.879577994E-2
7.385910060E-1,-1.711949855E-1,-1.029307917E-1,4.963280261E-2
7.485910060E-1,-1.090394482E-1,-2.822197378E-1,1.328631863E-2
7.585910060E-1,-5.955935922E-3,-3.996585906E-1,-3.527746722E-2
7.685910060E-1,9.392052889E-2,-4.389066696E-1,-6.490442902E-2
7.785910060E-1,1.185078546E-1,-4.373795092E-1,-7.467827946E-2
7.885910060E-1,9.025534242E-2,-3.249803185E-1,-5.818491429E-2
7.985910060E-1,8.093964309E-2,-1.463022232E-1,-1.084285788E-2
8.085910060E-1,1.023199260E-1,-7.024950534E-2,1.038470957E-2
8.185910060E-1,1.411098689E-1,-2.947424725E-2,3.848451003E-2
8.285910060E-1,1.594358236E-1,-1.954768784E-2,5.085453019E-2
8.385910060E-1,1.609629989E-1,-3.909537569E-2,4.092797264E-2
8.485910060E-1,1.415680200E-1,-6.963863969E-2,-7.635815418E-4
8.585910060E-1,9.789115191E-2,-1.252273768E-1,-3.023782931E-2
8.685910060E-1,5.772676691E-2,-1.598939747E-1,-4.138612002E-2
8.785910060E-1,4.123340361E-3,-1.936442852E-1,-3.772092983E-2
8.885910060E-1,-2.840523422E-2,-2.528982162E-1,-1.481348183E-2
8.985910060E-1,-2.550362423E-2,-2.800817192E-1,1.557706390E-2
9.085910060E-1,-1.221730467E-2,-2.689334154E-1,2.290744707E-2
9.185910060E-1,-4.886921961E-3,-2.553416789E-1,2.901609987E-2
9.285910060E-1,3.512475174E-3,-2.504547536E-1,3.512475267E-2
9.385910060E-1,6.108652451E-4,-2.049452960E-1,2.199114859E-2
9.485910060E-1,-2.519819140E-2,-9.239336848E-2,1.038470957E-2
9.585910060E-1,-6.811147183E-2,-9.529497474E-2,9.315694682E-3
9.685910060E-1,-1.502728462E-1,-2.177734673E-1,3.680463135E-2
9.785910060E-1,-2.283108830E-1,-3.772092760E-1,1.032362282E-1
9.885910060E-1,-2.458732575E-1,-4.439463317E-1,1.811215430E-1
9.985910060E-1,-2.002110779E-1,-4.624249935E-1,2.846632004E-1
1.008591006E0,-1.304197311E-1,-4.350887835E-1,3.591887653E-1
1.018591006E0,-5.177082866E-2,-3.399465084E-1,3.827070892E-1
1.028591006E0,7.483099122E-3,-2.483167201E-1,3.294090927E-1
1.038591006E0,2.351831272E-2,-1.568396538E-1,2.235766798E-1
1.048591006E0,2.031126991E-2,-8.414668590E-2,1.495092660E-1
1.058591006E0,1.679879427E-2,2.901609987E-3,1.328631938E-1
1.068591006E0,2.443460934E-2,-9.468411095E-3,1.670716405E-1
1.078591006E0,1.099557430E-2,-1.287398487E-1,2.200642079E-1
1.088591006E0,-4.581489135E-3,-1.634064466E-1,2.419026345E-1
1.098591006E0,-2.412917651E-2,-1.708895564E-1,2.284636050E-1
1.108591006E0,-2.336559631E-2,-1.301143020E-1,1.798998117E-1
1.118591006E0,-1.023199316E-2,1.252273750E-2,1.183551401E-1
1.128591006E0,-4.153883830E-2,1.769981980E-1,3.512475267E-2
1.138591006E0,-9.132435173E-2,2.281581759E-1,-1.221730467E-2
1.148591006E0,-7.803803682E-2,2.541199327E-1,-3.649919853E-2
1.158591006E0,-4.428773187E-3,1.446223408E-1,-3.222314268E-2
1.168591006E0,9.269879758E-2,1.802052557E-2,-1.527163113E-4
1.178591006E0,1.653917581E-1,-1.069014193E-3,5.818491429E-2
1.188591006E0,2.360994220E-1,5.314527452E-2,1.426370293E-1
1.198591006E0,2.532036304E-1,6.902777404E-2,1.963931769E-1
1.208591006E0,2.199114859E-1,7.574728876E-2,2.244929820E-1
1.218591006E0,2.003637999E-1,6.688974798E-2,2.550362349E-1
1.228591006E0,2.005165219E-1,5.818491429E-2,2.660318017E-1
1.238591006E0,2.277000248E-1,3.527746722E-2,2.512183189E-1
1.248591006E0,2.747366428E-1,8.704829961E-3,2.729040384E-1
1.258591006E0,3.229950070E-1,-2.641992271E-2,2.835941911E-1
1.268591006E0,3.743076921E-1,-1.128573567E-1,2.916881442E-1
1.278591006E0,4.280638099E-1,-2.057088763E-1,3.387247920E-1
1.288591006E0,4.456261992E-1,-2.386955917E-1,3.628539443E-1
1.298591006E0,4.088215530E-1,-2.377792895E-1,3.434589803E-1
1.308591006E0,3.488040566E-1,-1.377501190E-1,3.000875413E-1
1.318591006E0,3.292563558E-1,-3.558290005E-2,2.017382532E-1
1.328591006E0,3.440698385E-1,4.978551716E-2,9.239336848E-2
1.338591006E0,3.759875596E-1,4.902193695E-2,6.291911751E-2
1.348591006E0,4.207334518E-1,-2.901609987E-3,2.107485011E-2
1.358591006E0,4.631885588E-1,-7.101308554E-2,-8.552113548E-3
1.368591006E0,5.112941861E-1,-2.005165219E-1,-9.162978968E-4
1.378591006E0,5.444336534E-1,-3.129157126E-1,1.679879427E-2
1.388591006E0,5.258022547E-1,-5.467243865E-2,5.115996301E-2
1.398591006E0,3.849978149E-1,-3.249803185E-1,9.269879758E-2
1.408591006E0,2.614503205E-1,-3.631593883E-1,1.134682223E-1
1.418591006E0,1.748601794E-1,-4.218024611E-1,1.133155003E-1
1.428591006E0,2.327396572E-1,-4.334088862E-1,9.850201756E-2
1.438591006E0,3.287982047E-1,-4.616613984E-1,9.330966324E-2
1.448591006E0,4.297437072E-1,-4.862487316E-1,9.300423414E-2
1.458591006E0,6.178901792E-1,-5.146539807E-1,5.955936015E-2
1.468591006E0,8.112290502E-1,-4.499022663E-1,2.901609987E-2
1.478591006E0,9.098837972E-1,-3.787364662E-1,1.710422710E-2
1.488591006E0,8.778133392E-1,-3.607159257E-1,2.092213556E-2
1.498591006E0,7.579310536E-1,-2.912299931E-1,5.314527452E-2
1.508591006E0,5.545129180E-1,-2.090686262E-1,9.666942805E-2
1.518591006E0,3.347541690E-1,-3.254384696E-1,6.475171447E-2
1.528591006E0,3.089450896E-1,-4.503603876E-1,1.832595794E-3
1.538591006E0,4.210388660E-1,-4.870123267E-1,-2.535090782E-2
1.548591006E0,6.517932415E-1,-5.922338367E-1,-4.352414981E-2
1.558591006E0,8.975137472E-1,-8.235990405E-1,-4.398229718E-2
1.568591006E0,1.056949615E0,-1.040303469E0,-2.596177394E-3
1.578591006E0,1.072984815E0,-9.193521738E-1,9.437867999E-2
1.588591006E0,9.117164016E-1,-5.464189649E-1,1.834122837E-1
1.598591006E0,7.486153841E-1,-3.342960179E-1,8.353582025E-2
1.608591006E0,6.927211881E-1,-1.690569520E-1,-5.803219974E-3
1.618591006E0,7.325801253E-1,-1.059851199E-1,-1.175915636E-2
1.628591006E0,8.022187948E-1,-4.072943926E-1,7.941248268E-2
1.638591006E0,7.971791625E-1,-7.377725244E-1,1.910481006E-1
1.648591006E0,8.437576294E-1,-7.240280509E-1,2.228130996E-1
1.658591006E0,9.387471676E-1,-7.680103183E-1,1.895209402E-1
1.668591006E0,1.023810148E0,-7.941248417E-1,1.806633919E-1
1.678591006E0,1.112843752E0,-7.405213714E-1,2.003637999E-1
1.688591006E0,1.167210817E0,-5.525276065E-1,2.438879460E-1
1.698591006E0,1.172403097E0,-4.557054639E-1,2.640464902E-1
1.708591006E0,1.185994864E0,-4.642575979E-1,2.822197378E-1
1.718591006E0,1.269988894E0,-5.074763298E-1,2.709187269E-1
1.728591006E0,1.427133918E0,-6.330091357E-1,2.431243658E-1
1.738591006E0,1.594663739E0,-7.965682745E-1,2.211332172E-1
1.748591006E0,1.724930763E0,-9.103419185E-1,2.240348309E-1
1.758591006E0,1.760208249E0,-8.880453706E-1,2.496911734E-1
1.768591006E0,1.678504944E0,-8.167268038E-1,2.684752643E-1
1.778591006E0,1.530828357E0,-6.811147332E-1,2.805398703E-1
1.788591006E0,1.415069342E0,-5.290092826E-1,2.570215464E-1
1.798591006E0,1.429882765E0,-4.331034720E-1,2.258674204E-1
1.808591006E0,1.592831135E0,-2.900082767E-1,1.786780804E-1
1.818591006E0,1.817018628E0,-2.382374406E-1,1.456913650E-1
1.828591006E0,1.976607203E0,-3.468187451E-1,1.264491081E-1
1.838591006E0,2.029294252E0,-4.552473128E-1,1.111774743E-1
1.848591006E0,1.988519073E0,-5.511531830E-1,8.017606288E-2
1.858591006E0,1.886504650E0,-5.459607840E-1,5.849034712E-2
1.868591006E0,1.772883654E0,-3.633120954E-1,5.589416996E-2
1.878591006E0,1.701107025E0,-8.979719132E-2,9.773843735E-2
1.888591006E0,1.763109803E0,8.246681094E-2,1.304197311E-1
1.898591006E0,1.921323895E0,1.098030284E-1,1.608102769E-1
1.908591006E0,1.986839175E0,-5.054909736E-2,2.330450863E-1
1.918591006E0,1.939802527E0,-2.412917763E-1,2.602286041E-1
1.928591006E0,1.863749862E0,-2.452623993E-1,1.760819107E-1
1.938591006E0,1.791973233E0,-2.038762718E-1,9.453139454E-2
1.948591006E0,1.795791149E0,-2.136501223E-1,8.597928286E-2
1.958591006E0,1.867262363E0,-2.310597748E-1,5.894849449E-2
1.968591006E0,1.993864179E0,-2.611449063E-1,-2.687807009E-2
1.978591006E0,2.070833206E0,-3.430008292E-1,-1.250746548E-1
1.988591006E0,2.036777496E0,-3.700316250E-1,-1.997529417E-1
1.998591006E0,1.896736622E0,-3.628539443E-1,-2.141082734E-1
2.008591006E0,1.725388885E0,-2.964223623E-1,-1.536326110E-1
2.018591006E0,1.640173197E0,-2.499966025E-1,-7.147123665E-2
2.028591006E0,1.661553502E0,-1.806633919E-1,5.100724846E-2
2.038591006E0,1.737453461E0,-1.580613852E-1,1.169806942E-1
2.048591006E0,1.797929168E0,-1.832595766E-1,1.301143020E-1
2.058591006E0,1.822058320E0,-2.503020465E-1,1.125519201E-1
2.068591006E0,1.786475420E0,-3.730859458E-1,6.933320314E-2
2.078591006E0,1.722945452E0,-5.143485069E-1,1.130100712E-2
2.088591006E0,1.648572564E0,-5.641340613E-1,-8.399397135E-3
2.098591006E0,1.615127683E0,-5.410739183E-1,-3.023782931E-2
2.108591006E0,1.595121861E0,-5.108360648E-1,-4.428773187E-3
2.118591006E0,1.534493446E0,-4.564690590E-1,1.313360315E-2
2.128591006E0,1.463633180E0,-3.814853430E-1,5.513058975E-2
2.138591006E0,1.396743417E0,-4.327980280E-1,1.282816976E-1
2.148591006E0,1.357495308E0,-4.360050559E-1,1.759291887E-1
2.158591006E0,1.352608323E0,-4.387539625E-1,2.064724565E-1
2.168591006E0,1.367269158E0,-4.239404798E-1,2.260201424E-1
2.178591006E0,1.323592305E0,-3.582724631E-1,2.423607856E-1
2.188591006E0,1.218217969E0,-2.748893499E-1,2.307543457E-1
2.198591006E0,1.162171125E0,-1.992947906E-1,2.189951837E-1
2.208591006E0,1.156520605E0,-1.368338168E-1,2.021963894E-1
2.218591006E0,1.133918643E0,-1.971567571E-1,2.008219510E-1
2.228591006E0,1.100015640E0,-2.356412709E-1,2.153300047E-1
2.238591006E0,1.074053764E0,-2.174680233E-1,2.214386463E-1
2.248591006E0,1.052215338E0,-1.319468915E-1,2.147191316E-1
2.258591006E0,1.045953989E0,-1.664607786E-2,2.079996169E-1
2.268591006E0,1.026711702E0,6.520986557E-2,2.084577680E-1
2.278591006E0,9.900598526E-1,1.615738571E-1,2.212859392E-1
2.288591006E0,9.443976879E-1,2.886338234E-1,2.061670274E-1
2.298591006E0,8.000807762E-1,4.711298347E-1,1.670716405E-1
2.308591006E0,5.583308339E-1,6.747006774E-1,1.282816976E-1
2.318591006E0,4.098905921E-1,6.646214128E-1,1.052215397E-1
2.328591006E0,5.488623977E-1,3.051272035E-1,-1.832595794E-3
2.338591006E0,5.419901609E-1,3.568980098E-1,-7.605272532E-2
2.348591006E0,4.957171381E-1,3.260493279E-1,-1.334740520E-1
2.358591006E0,4.651738703E-1,9.361509979E-2,-6.505715102E-2
2.368591006E0,4.540255964E-1,-1.298088580E-1,-2.718350291E-2
2.378591006E0,2.835941911E-1,-1.430951804E-1,4.871650413E-2
2.388591006E0,7.437284291E-2,-9.178250283E-2,8.964447677E-2
2.398591006E0,-2.794708498E-2,-5.726861581E-2,7.284568250E-2
2.408591006E0,-5.742133409E-2,6.017022580E-2,7.238753140E-2
2.418591006E0,-6.826419383E-2,1.444696337E-1,8.384125680E-2
2.428591006E0,-7.712173462E-2,1.701259762E-1,9.498954564E-2
2.438591006E0,-6.001751125E-2,1.812742651E-1,1.084285825E-1
2.448591006E0,-4.245513305E-2,1.545489132E-1,8.750644326E-2
2.458591006E0,-2.489275858E-2,1.096503139E-1,4.077525437E-2
2.468591006E0,0.000000000E0,8.307767659E-2,2.107485011E-2
2.478591006E0,3.527746722E-2,-6.108652335E-3,3.634648025E-2
2.488591006E0,6.979135424E-2,-1.557706390E-2,4.245513305E-2
2.498591006E0,1.036943719E-1,2.641992271E-2,5.115996301E-2
2.508591006E0,1.241583601E-1,7.070764899E-2,6.475171447E-2
2.518591006E0,1.157589629E-1,1.565342247E-1,4.321871698E-2
2.528591006E0,9.117163718E-2,2.765692472E-1,2.076941915E-2
2.538591006E0,6.459899992E-2,3.413209617E-1,-1.985311974E-3
2.548591006E0,6.001751125E-2,3.168863356E-1,-1.435533352E-2
2.558591006E0,1.007927656E-1,2.832887471E-1,-6.352998316E-2
2.568591006E0,7.757988572E-2,1.736384481E-1,-2.000583708E-2
2.578591006E0,5.650503561E-2,7.055493444E-2,-2.550362423E-2
2.588591006E0,4.505131021E-2,-6.872233935E-3,-3.436116874E-2
2.598591006E0,2.519819140E-2,1.267545391E-2,-4.764748737E-2
2.608591006E0,4.886921961E-3,1.817324162E-1,-7.360926270E-2
2.618591006E0,3.207042580E-3,2.335032374E-1,-1.123992056E-1
2.628591006E0,5.345070735E-3,1.488984078E-1,-1.238529310E-1
2.638591006E0,4.276056774E-3,1.304197311E-1,-1.142318025E-1
2.648591006E0,1.832595794E-3,1.316414624E-1,-1.166752651E-1
2.658591006E0,-2.290744567E-3,1.635591686E-1,-1.163698286E-1
2.668591006E0,-4.581489135E-3,1.597412676E-1,-1.140790880E-1
2.678591006E0,-3.665191587E-3,1.794416606E-1,-1.224784851E-1
2.688591006E0,-7.330383174E-3,1.857030392E-1,-1.345430762E-1
2.698591006E0,-1.450804994E-2,1.550070494E-1,-1.493565589E-1
2.708591006E0,-2.412917651E-2,2.748893574E-2,-1.733330190E-1
2.718591006E0,-3.985895589E-2,-1.024726480E-1,-1.886046380E-1
2.728591006E0,-4.321871698E-2,-1.430951804E-1,-1.838704348E-1
2.738591006E0,-3.909537569E-2,-6.200282276E-2,-1.933388561E-1
2.748591006E0,-3.543018550E-2,5.451972410E-2,-1.986839175E-1
2.758591006E0,-3.833179548E-2,9.254608303E-2,-1.985312104E-1
2.768591006E0,-4.673119262E-2,7.024950534E-2,-1.950187236E-1
2.778591006E0,-5.329799280E-2,-7.024950348E-3,-1.843285859E-1
2.788591006E0,-5.772676691E-2,-5.009094998E-2,-1.601994038E-1
2.798591006E0,-4.993823543E-2,2.580905706E-2,-1.501201391E-1
2.808591006E0,-3.298672289E-2,1.693623960E-1,-1.359175146E-1
2.818591006E0,-3.695734590E-2,1.999056488E-1,-1.064432710E-1
2.828591006E0,-7.208210230E-2,1.565342247E-1,-8.827003092E-2
2.838591006E0,-1.018617824E-1,1.780672222E-1,-7.590000331E-2
2.848591006E0,-1.316414624E-1,2.145664245E-1,-7.315111160E-2
2.858591006E0,-1.550070494E-1,2.116648108E-1,-4.993823543E-2
2.868591006E0,-1.945605874E-1,2.344195396E-1,-2.779436857E-2
2.878591006E0,-2.593123019E-1,5.584835410E-1,3.359758761E-3
2.888591006E0,-1.556179225E-1,8.425359130E-1,5.222897977E-2
2.898591006E0,7.391469181E-2,6.171266437E-1,2.748893574E-2
2.908591006E0,1.728748679E-1,2.101376504E-1,1.298088674E-2
2.918591006E0,3.329215571E-2,6.505715102E-2,1.970040426E-2
2.928591006E0,-7.605272532E-2,7.483099401E-2,2.122756653E-2
2.938591006E0,-9.743300825E-2,1.249219403E-1,1.542434748E-2
2.948591006E0,-9.025534242E-2,1.336267740E-1,5.650503561E-3
2.958591006E0,-7.498370856E-2,8.979719132E-2,1.679879380E-3
2.968591006E0,-5.619960278E-2,4.703662544E-2,7.483099122E-3
2.978591006E0,-3.268129006E-2,3.497203439E-2,1.970040426E-2
2.988591006E0,-2.031126991E-2,3.375030309E-2,2.580905706E-2
2.998591006E0,-1.313360315E-2,5.100724846E-2,3.802636266E-2
3.008591006E0,-1.481348183E-2,8.643743396E-2,4.795292020E-2
3.018591006E0,-2.840523422E-2,1.021672115E-1,5.177082866E-2
3.028591006E0,-3.359758854E-2,1.241583601E-1,5.436700583E-2
3.038591006E0,-4.978551716E-2,1.411098689E-1,5.925392732E-2
3.048591006E0,-4.718934000E-2,1.290452778E-1,4.948008433E-2
3.058591006E0,-1.114829071E-2,1.980730593E-1,3.878994286E-2
3.068591006E0,1.832595654E-2,3.185662329E-1,3.695734590E-2
3.078591006E0,3.512475267E-2,2.330450863E-1,3.405573592E-2
3.088591006E0,4.734205548E-3,-1.985312067E-2,2.901609987E-2
3.098591006E0,-3.344487399E-2,-1.171334088E-1,2.977968007E-2
3.108591006E0,-2.947424725E-2,-1.427897513E-1,2.596177347E-2
3.118591006E0,-3.359758761E-3,-1.829541475E-1,2.703078650E-2
3.128591006E0,1.389718428E-2,-1.779145002E-1,2.336559631E-2
3.138591006E0,-3.665191587E-3,-3.588833287E-2,1.802052557E-2
3.148591006E0,-1.939497143E-2,5.711590126E-2,9.926560335E-3
3.158591006E0,-1.542434748E-2,3.405573592E-2,1.374446787E-3
3.168591006E0,-7.941247895E-3,1.817324013E-2,-4.886921961E-3
3.178591006E0,-7.635815535E-3,-1.237002108E-2,-9.926560335E-3
3.188591006E0,-2.290744567E-3,-4.673119262E-2,-1.374446787E-2
3.198591006E0,1.786780916E-2,-1.053742543E-1,-1.542434748E-2
3.208591006E0,2.428189293E-2,-1.235474944E-1,-1.664607786E-2
3.218591006E0,3.008511290E-2,-9.651670605E-2,-1.404990070E-2
3.228591006E0,3.711006418E-2,-6.337726861E-2,-1.511891466E-2
3.238591006E0,3.420845419E-2,-1.924225502E-2,-1.618792862E-2
3.248591006E0,2.168571576E-2,2.596177394E-3,-1.603521220E-2
3.258591006E0,1.832595794E-3,2.076941915E-2,-1.343903504E-2
3.268591006E0,-2.046398632E-2,3.405573592E-2,-9.621127509E-3
3.278591006E0,-3.405573592E-2,4.856378585E-2,-7.177666761E-3
3.288591006E0,-3.390302137E-2,3.619376570E-2,-4.734205548E-3
3.298591006E0,-3.130684420E-2,2.275473066E-2,-1.221730490E-3
3.308591006E0,-2.382374369E-2,6.872233935E-3,1.221730490E-3
3.318591006E0,-7.788531948E-3,4.734205548E-3,-0.000000000E0
3.328591006E0,8.399397135E-3,-1.359175146E-2,-5.039638374E-3
3.338591006E0,2.092213556E-2,-4.153883830E-2,-8.857546374E-3
3.348591006E0,2.580905706E-2,-3.787364438E-2,-1.130100712E-2
3.358591006E0,2.687807009E-2,-2.428189293E-2,-1.252273750E-2
3.368591006E0,1.710422710E-2,-3.176499158E-2,-1.130100712E-2
3.378591006E0,1.328631863E-2,-1.832595654E-2,-7.483099122E-3
3.388591006E0,8.246680722E-3,-7.330383174E-3,-8.704829961E-3
3.398591006E0,-4.581489484E-4,1.084285788E-2,-7.330383174E-3
3.408591006E0,-6.108652451E-4,1.572977938E-2,-4.886921961E-3
3.418591006E0,4.123340361E-3,3.787364438E-2,-4.734205548E-3
3.428591006E0,6.566801574E-3,4.291328415E-2,-3.512475174E-3
3.438591006E0,1.374446787E-2,5.268712714E-2,-4.734205548E-3
3.448591006E0,1.374446787E-2,5.894849449E-2,-5.955935922E-3
3.458591006E0,1.389718428E-2,4.535674304E-2,-5.955935922E-3
3.468591006E0,9.010262787E-3,3.802636266E-2,-3.512475174E-3
3.478591006E0,1.832595794E-3,2.565634064E-2,-3.665191587E-3
3.488591006E0,-6.108652451E-4,1.450804994E-2,-0.000000000E0
3.498591006E0,7.635815418E-4,1.206458826E-2,2.443460980E-3
3.508591006E0,-1.832595794E-3,1.572977938E-2,3.665191587E-3
3.518591006E0,-1.832595794E-3,1.695151068E-2,2.443460980E-3
3.528591006E0,3.054326167E-3,2.199114859E-2,1.221730490E-3
3.538591006E0,3.054326167E-3,2.076941915E-2,1.221730490E-3
3.548591006E0,2.138028387E-3,-5.039638374E-3,3.512475174E-3
3.558591006E0,7.024950348E-3,-7.483099122E-3,4.734205548E-3
3.568591006E0,8.246680722E-3,-8.704829961E-3,2.290744567E-3
3.578591006E0,6.872233935E-3,1.221730467E-2,2.443460980E-3
3.588591006E0,2.138028387E-3,-8.704829961E-3,2.290744567E-3
3.598591006E0,-1.679879380E-3,3.512475174E-3,2.290744567E-3
3.608591006E0,-3.054326167E-3,1.450804994E-2,2.443460980E-3
3.618591006E0,-2.901609987E-3,1.206458826E-2,-0.000000000E0
3.628591006E0,-5.345070735E-3,9.621127509E-3,-0.000000000E0
3.638591006E0,-6.719517522E-3,1.450804994E-2,-0.000000000E0
3.648591006E0,-7.788531948E-3,7.177666761E-3,-0.000000000E0
3.658591006E0,-1.679879380E-3,9.621127509E-3,-2.443460980E-3
3.668591006E0,-2.901609987E-3,1.069014193E-3,-3.817907767E-3
3.678591006E0,-5.192354787E-3,-1.007927675E-2,-1.374446787E-3
3.688591006E0,-2.748893574E-3,-5.039638374E-3,-1.374446787E-3
3.698591006E0,-4.123340361E-3,-1.374446787E-3,-2.596177394E-3
3.708591006E0,-1.527163084E-3,-7.483099122E-3,-1.374446787E-3
3.718591006E0,-3.970623948E-3,-3.817907767E-3,-1.374446787E-3
3.728591006E0,-2.901609987E-3,7.177666761E-3,-0.000000000E0
3.738591006E0,-6.108652451E-4,1.695151068E-2,-0.000000000E0
3.748591006E0,-6.108652451E-4,1.817324013E-2,-2.443460980E-3
3.758591006E0,-2.901609987E-3,8.399397135E-3,-0.000000000E0
3.768591006E0,7.635815418E-4,3.512475174E-3,-2.596177394E-3
3.778591006E0,-1.679879380E-3,2.290744567E-3,1.069014193E-3
3.788591006E0,-1.527163084E-3,-5.039638374E-3,-1.527163113E-4
3.798591006E0,-7.788531948E-3,-2.748893574E-3,3.512475174E-3
3.808591006E0,-8.857546374E-3,-1.007927675E-2,3.512475174E-3
3.818591006E0,-6.566801574E-3,2.138028387E-3,1.069014193E-3
3.828591006E0,-1.832595794E-3,1.328631863E-2,-1.221730490E-3
3.838591006E0,7.635815418E-4,7.177666761E-3,-0.000000000E0
3.848591006E0,-1.679879380E-3,1.084285788E-2,-0.000000000E0
3.858591006E0,7.635815418E-4,3.512475174E-3,-1.527163113E-4
3.868591006E0,5.650503561E-3,1.099557430E-2,-0.000000000E0
3.878591006E0,8.093964309E-3,8.552113548E-3,1.069014193E-3
3.888591006E0,6.872233935E-3,7.330383174E-3,2.290744567E-3
3.898591006E0,5.650503561E-3,3.512475174E-3,3.512475174E-3
3.908591006E0,-4.581489484E-4,1.069014193E-3,3.512475174E-3
3.918591006E0,-6.566801574E-3,8.399397135E-3,1.221730490E-3
3.928591006E0,-1.282817032E-2,1.069014147E-2,-0.000000000E0
3.938591006E0,-1.282817032E-2,1.191187184E-2,-2.443460980E-3
3.948591006E0,-3.054326167E-3,1.695151068E-2,-4.886921961E-3
3.958591006E0,1.557706390E-2,4.886921961E-3,-2.596177394E-3
3.968591006E0,2.794708498E-2,-5.955935922E-3,-2.596177394E-3
3.978591006E0,3.191770986E-2,-3.405573592E-2,-1.527163084E-3
3.988591006E0,2.336559631E-2,-3.909537569E-2,-1.527163084E-3
3.998591006E0,6.872233935E-3,3.665191587E-3,-2.596177394E-3
4.008591006E0,-1.160643995E-2,1.191187184E-2,-1.221730490E-3
4.018591006E0,-2.748893574E-2,1.420261711E-2,-0.000000000E0
4.028591006E0,-3.268129006E-2,3.252857551E-2,3.817907767E-3
4.038591006E0,-3.878994286E-2,3.252857551E-2,6.261368748E-3
4.048591006E0,-3.634648025E-2,3.252857551E-2,6.261368748E-3
4.058591006E0,-3.604105115E-2,4.276056774E-3,7.330383174E-3
4.068591006E0,-2.748893574E-2,3.207042580E-3,4.886921961E-3
4.078591006E0,9.468411095E-3,1.221730490E-3,-1.527163113E-4
4.088591006E0,4.749477282E-2,2.901609987E-3,-2.596177394E-3
4.098591006E0,8.170322329E-2,1.175915636E-2,-5.039638374E-3
4.108591006E0,9.269879758E-2,2.183843218E-2,-1.237002108E-2
4.118591006E0,7.086037099E-2,1.832595794E-3,-1.374446787E-3
4.172750176E0,7.513642311E-2,5.971207842E-2,-3.283400834E-2
4.182750176E0,8.964447677E-2,7.941248268E-2,-3.283400834E-2
4.192750176E0,7.376197726E-2,7.192938030E-2,-2.794708498E-2
4.202750176E0,5.283984542E-2,6.918048859E-2,-2.061670274E-2
4.212750176E0,3.940080851E-2,7.147123665E-2,-1.939497143E-2
4.222750176E0,4.444044828E-2,5.436700583E-2,-9.621127509E-3
4.232750176E0,5.558873713E-2,4.214970022E-2,-0.000000000E0
4.242750176E0,5.360342562E-2,1.023199316E-2,7.177666761E-3
4.252750176E0,4.260785133E-2,3.054326226E-4,1.450804994E-2
4.262750176E0,3.665191308E-2,-1.954768784E-2,2.168571576E-2
4.272750176E0,4.550946131E-2,-3.772092983E-2,2.275473066E-2
4.282750176E0,3.955352306E-2,-5.253441259E-2,2.397646010E-2
4.292750176E0,2.748893574E-2,-7.605272532E-2,2.626720630E-2
4.302750176E0,1.771509275E-2,-8.475755155E-2,3.115412779E-2
4.312750176E0,2.840523422E-2,-5.268712714E-2,3.497203439E-2
4.322750176E0,2.214386500E-2,-3.695734590E-2,3.512475267E-2
4.332750176E0,1.114829071E-2,-3.817907721E-2,3.634648025E-2
4.342750176E0,7.330383174E-3,-3.329215571E-2,3.268129006E-2
4.352750176E0,1.847867295E-2,-3.680463135E-2,2.535090782E-2
4.362750176E0,2.809980139E-2,-2.443460934E-2,1.802052557E-2
4.372750176E0,2.076941915E-2,-2.825251780E-2,1.924225502E-2
4.382750176E0,1.954768784E-2,-2.336559631E-2,2.046398632E-2
4.392750176E0,2.183843218E-2,-1.466076635E-2,1.313360315E-2
4.402750176E0,2.412917651E-2,2.596177394E-3,4.734205548E-3
4.412750176E0,3.375030309E-2,1.863138936E-2,2.443460980E-3
4.422750176E0,3.252857551E-2,1.740965992E-2,1.221730490E-3
4.432750176E0,3.023782931E-2,8.704829961E-3,-1.527163113E-4
4.442750176E0,2.657263726E-2,6.261368748E-3,1.069014193E-3
4.452750176E0,3.145955876E-2,1.374446787E-3,9.621127509E-3
4.462750176E0,3.772092983E-2,-8.399397135E-3,1.924225502E-2
4.472750176E0,4.138612002E-2,1.527163113E-4,2.672535367E-2
4.482750176E0,4.123340547E-2,1.359175146E-2,3.527746722E-2
4.492750176E0,3.985895589E-2,2.703078650E-2,3.909537569E-2
4.502750176E0,4.352414981E-2,3.069597855E-2,4.031710699E-2
4.512750176E0,3.756821156E-2,1.603521220E-2,3.772092983E-2
4.522750176E0,3.756821156E-2,7.483099122E-3,3.283400834E-2
4.532750176E0,3.405573592E-2,-4.886921961E-3,3.039054573E-2
4.542750176E0,3.420845419E-2,-1.343903504E-2,2.779436857E-2
4.552750176E0,3.909537569E-2,-1.328631863E-2,2.535090782E-2
4.562750176E0,4.276056588E-2,-1.450804994E-2,2.657263726E-2
4.572750176E0,4.642575979E-2,-1.084285788E-2,3.145955876E-2
4.582750176E0,4.764748737E-2,-1.572977938E-2,3.390302137E-2
4.592750176E0,4.764748737E-2,-1.206458826E-2,3.512475267E-2
4.602750176E0,4.276056588E-2,-1.206458826E-2,3.512475267E-2
4.612750176E0,4.398229718E-2,-7.177666761E-3,3.390302137E-2
4.622750176E0,4.382958263E-2,6.261368748E-3,3.039054573E-2
4.632750176E0,4.489859566E-2,2.092213556E-2,3.405573592E-2
4.642750176E0,4.337143153E-2,3.817907721E-2,3.909537569E-2
4.652750176E0,4.459316283E-2,3.695734590E-2,4.031710699E-2
4.662750176E0,5.329799280E-2,3.451388702E-2,4.153883830E-2
4.672750176E0,6.322455406E-2,1.985312067E-2,4.382958263E-2
4.682750176E0,6.337726861E-2,1.130100712E-2,4.016438872E-2
4.692750176E0,4.367686436E-2,8.704829961E-3,3.772092983E-2
4.702750176E0,-6.261368748E-3,-1.756237634E-2,4.016438872E-2
4.712750176E0,-5.757404864E-2,-4.031710699E-2,4.123340547E-2
4.722750176E0,-7.849618047E-2,-4.780020565E-2,3.512475267E-2
4.732750176E0,-6.872233748E-2,-3.665191308E-2,3.649919853E-2
4.742750176E0,-3.695734590E-2,-1.679879427E-2,4.505131021E-2
4.752750176E0,1.313360315E-2,-3.970623948E-3,5.360342562E-2
4.762750176E0,6.337726861E-2,5.039638374E-3,6.322455406E-2
4.772750176E0,9.896016866E-2,1.878410578E-2,8.765916526E-2
4.782750176E0,1.159116775E-1,3.115412779E-2,1.085812971E-1
4.792750176E0,1.232420653E-1,3.970624134E-2,1.317941695E-1
4.802750176E0,1.272126883E-1,2.122756653E-2,1.524108797E-1
4.812750176E0,1.372919679E-1,-1.053742506E-2,1.632537395E-1
4.822750176E0,1.744020283E-1,-2.855795063E-2,1.617265791E-1
4.832750176E0,2.000583708E-1,-2.092213556E-2,1.580613852E-1
4.842750176E0,2.000583708E-1,-2.458732575E-2,1.507309973E-1
4.852750176E0,1.828014255E-1,-1.970040426E-2,1.411098689E-1
4.862750176E0,1.287398487E-1,-9.315694682E-3,1.278235465E-1
4.872750176E0,1.203404516E-1,-3.145955876E-2,1.423316002E-1
4.882750176E0,1.389718503E-1,-5.451972410E-2,1.238529310E-1
4.892750176E0,1.574505121E-1,-4.932736978E-2,1.177442744E-1
4.902750176E0,1.780672222E-1,-2.947424725E-2,1.069014147E-1
4.912750176E0,1.890627891E-1,-3.176499158E-2,9.957103431E-2
4.922750176E0,1.976149082E-1,-2.672535367E-2,1.007927656E-1
4.932750176E0,2.049452960E-1,-1.450804994E-2,1.117883399E-1
4.942750176E0,2.087631971E-1,-2.550362423E-2,1.336267740E-1
4.952750176E0,2.014328092E-1,-3.680463135E-2,1.458440721E-1
4.962750176E0,2.029599845E-1,-5.513058975E-2,1.493565589E-1
4.972750176E0,2.179261744E-1,-7.819075137E-2,1.479821056E-1
4.982750176E0,2.573269904E-1,-9.987647086E-2,1.453859210E-1
4.992750176E0,2.843577862E-1,-9.834930301E-2,1.490511149E-1
5.002750176E0,2.686280012E-1,-1.182024255E-1,1.525636017E-1
5.012750176E0,2.397646159E-1,-1.638645977E-1,1.621847153E-1
5.022750176E0,2.423607856E-1,-1.811215430E-1,1.718058437E-1
5.032750176E0,2.582432926E-1,-1.785253733E-1,1.852448881E-1
5.042750176E0,2.803871334E-1,-1.722639948E-1,1.889100820E-1
5.052750176E0,3.025310040E-1,-1.890627891E-1,1.850921661E-1
5.062750176E0,3.336851299E-1,-2.193006277E-1,1.763873398E-1
5.072750176E0,3.646865487E-1,-2.519819140E-1,1.601994038E-1
5.082750176E0,3.969096839E-1,-2.809980214E-1,1.392772794E-1
5.092750176E0,4.254676402E-1,-3.149010241E-1,1.269072592E-1
5.102750176E0,4.576907754E-1,-3.365867436E-1,1.096503139E-1
5.112750176E0,4.825835526E-1,-3.692680299E-1,9.834930301E-2
5.122750176E0,4.986187518E-1,-3.788891733E-1,9.468411654E-2
5.132750176E0,4.958698750E-1,-3.544545472E-1,9.972374886E-2
5.142750176E0,4.992296100E-1,-3.274237812E-1,1.072068512E-1
5.152750176E0,5.442809463E-1,-2.828305960E-1,1.073595658E-1
5.162750176E0,6.186537743E-1,-2.377792895E-1,9.758572280E-2
5.172750176E0,6.795876026E-1,-1.941024363E-1,7.574728876E-2
5.182750176E0,7.002043128E-1,-1.826487035E-1,5.390885845E-2
5.192750176E0,6.930266023E-1,-1.936442852E-1,2.336559631E-2
5.202750176E0,6.727153659E-1,-2.574796975E-1,-3.817907767E-3
5.212750176E0,6.598871946E-1,-3.101668358E-1,-2.244929783E-2
5.222750176E0,6.505714655E-1,-3.605632186E-1,-4.108068720E-2
5.232750176E0,6.319400668E-1,-4.587597847E-1,-5.253441259E-2
5.242750176E0,6.296493411E-1,-5.838344693E-1,-5.925392732E-2
5.252750176E0,6.380487680E-1,-6.866125464E-1,-5.497787148E-2
5.262750176E0,6.659958363E-1,-7.686212063E-1,-4.199698567E-2
5.272750176E0,6.960809231E-1,-8.271115422E-1,-3.130684420E-2
5.282750176E0,7.605272532E-1,-8.767443299E-1,-1.466076635E-2
5.292750176E0,8.245153427E-1,-8.810204268E-1,3.512475174E-3
5.302750176E0,8.562803864E-1,-8.772025108E-1,1.939497143E-2
5.312750176E0,8.689557910E-1,-9.065240026E-1,2.535090782E-2
5.322750176E0,8.729264140E-1,-8.193230033E-1,2.458732575E-2
5.332750176E0,8.961393237E-1,-6.989825368E-1,1.542434748E-2
5.342750176E0,8.996517658E-1,-5.676465034E-1,-7.177666761E-3
5.352750176E0,8.906415105E-1,-5.283984542E-1,-2.275473066E-2
5.362750176E0,8.982773423E-1,-5.587889552E-1,-3.878994286E-2
5.372750176E0,9.248499870E-1,-6.380487680E-1,-7.834346592E-2
5.382750176E0,9.634872079E-1,-6.962336898E-1,-1.226311997E-1
5.392750176E0,1.012203693E0,-7.666358948E-1,-1.353066564E-1
5.402750176E0,1.051909924E0,-8.043568134E-1,-1.123992056E-1
5.412750176E0,1.076039076E0,-7.683157325E-1,-1.537853181E-1
5.422750176E0,1.086423874E0,-7.079927921E-1,-1.766927689E-1
5.432750176E0,1.097266674E0,-5.746715069E-1,-8.933904022E-2
5.442750176E0,1.116967082E0,-4.584543705E-1,-2.397646010E-2
5.452750176E0,1.178053617E0,-3.145956099E-1,2.428189293E-2
5.462750176E0,1.254259109E0,-2.023491114E-1,4.673119262E-2
5.472750176E0,1.285413146E0,-1.397354305E-1,9.330966324E-2
5.482750176E0,1.279609919E0,-1.606575549E-1,9.697485715E-2
5.492750176E0,1.278082848E0,-2.451096773E-1,8.552113175E-2
5.502750176E0,1.244179845E0,-3.017674387E-1,7.055493444E-2
5.512750176E0,1.178206325E0,-3.214678466E-1,1.560760736E-1
5.522750176E0,1.156978726E0,-2.898555696E-1,1.794416606E-1
5.532750176E0,1.157436967E0,-2.223549485E-1,1.664607823E-1
5.542750176E0,1.195921421E0,-1.397354305E-1,1.496619880E-1
5.552750176E0,1.265407324E0,-1.007927656E-1,1.094975919E-1
5.562750176E0,1.330311775E0,-8.888089657E-2,7.895433158E-2
5.572750176E0,1.400561333E0,-1.139263660E-1,9.330966324E-2
5.582750176E0,1.432631731E0,-1.258382350E-1,9.926560521E-2
5.592750176E0,1.416596532E0,-1.101084575E-1,1.055269688E-1
5.602750176E0,1.386969566E0,-9.819658846E-2,1.130100712E-1
5.612750176E0,1.375973940E0,-1.082758680E-1,1.287398487E-1
5.622750176E0,1.364825726E0,-9.498954564E-2,1.496619880E-1
5.632750176E0,1.356426239E0,-1.050688252E-1,1.763873398E-1
5.642750176E0,1.399797678E0,-1.429424733E-1,2.469422817E-1
5.652750176E0,1.445459843E0,-1.643227488E-1,2.199114859E-1
5.662750176E0,1.425912142E0,-1.803579628E-1,1.905899495E-1
5.672750176E0,1.362076759E0,-1.734857261E-1,1.589776874E-1
5.682750176E0,1.346805096E0,-1.356120855E-1,1.348485053E-1
5.692750176E0,1.376432061E0,-3.588833287E-2,1.194241568E-1
5.702750176E0,1.463327646E0,1.061378345E-1,1.200350225E-1
5.712750176E0,1.525025129E0,1.937969923E-1,1.301143020E-1
5.722750176E0,1.584279060E0,2.762638032E-1,1.768454909E-1
5.732750176E0,1.598176241E0,2.357939780E-1,2.266310006E-1
5.742750176E0,1.507615447E0,1.094975919E-1,2.640464902E-1
5.752750176E0,1.459967971E0,-2.351831272E-2,2.671008408E-1
5.762750176E0,1.463480353E0,-1.237002108E-2,2.499966025E-1
5.772750176E0,1.504408360E0,5.421429127E-2,2.674062550E-1
5.782750176E0,1.521207213E0,9.972374886E-2,2.919935882E-1
5.792750176E0,1.506699085E0,7.605272532E-2,3.089450896E-1
5.802750176E0,1.485777020E0,7.590000331E-2,3.029891551E-1
5.812750176E0,1.450041413E0,8.918632567E-2,2.738203406E-1
5.822750176E0,1.430341005E0,1.026253626E-1,2.519819140E-1
5.832750176E0,1.436602354E0,8.536841720E-2,2.652682364E-1
5.842750176E0,1.442100167E0,3.756821156E-2,2.881756723E-1
5.852750176E0,1.425912142E0,-5.971207842E-2,3.229950070E-1
5.862750176E0,1.392467380E0,-1.450804919E-1,3.947716653E-1
5.872750176E0,1.339016676E0,-1.876883507E-1,4.628831446E-1
5.882750176E0,1.302517414E0,-2.092213482E-1,5.093088746E-1
5.892750176E0,1.291216373E0,-3.025310040E-1,5.027421117E-1
5.902750176E0,1.377959251E0,-3.761402667E-1,4.630358517E-1
5.912750176E0,1.458135366E0,-4.216497242E-1,4.492913783E-1
5.922750176E0,1.448514223E0,-4.353941977E-1,4.662429094E-1
5.932750176E0,1.406059027E0,-3.685044646E-1,4.886921942E-1
5.942750176E0,1.426064968E0,-2.935207486E-1,4.841107130E-1
5.952750176E0,1.448819637E0,-2.380847335E-1,4.660901725E-1
5.962750176E0,1.430951834E0,-1.733330190E-1,4.751004577E-1
5.972750176E0,1.410946012E0,-1.441642046E-1,4.776966274E-1
5.982750176E0,1.402852058E0,-1.895209402E-1,4.761694670E-1
5.992750176E0,1.431868076E0,-2.551889420E-1,4.343251884E-1
6.002750176E0,1.477683067E0,-2.900082767E-1,3.985895813E-1
6.012750176E0,1.484707952E0,-2.593123019E-1,3.950771093E-1
6.022750176E0,1.416596532E0,-2.147191316E-1,3.955352604E-1
6.032750176E0,1.333213449E0,-2.167044431E-1,3.675881624E-1
6.042750176E0,1.350928545E0,-1.598939747E-1,3.422372639E-1
6.052750176E0,1.362076759E0,-1.695151031E-1,3.335324228E-1
6.062750176E0,1.357189894E0,-1.757764816E-1,3.371976018E-1
6.072750176E0,1.355815411E0,-1.548543423E-1,3.263547719E-1
6.082750176E0,1.342834473E0,-1.021672115E-1,3.107776940E-1
6.092750176E0,1.310764074E0,-8.170322329E-2,2.950479090E-1
6.102750176E0,1.264949203E0,-4.444044828E-2,3.405573666E-1
6.112750176E0,1.240209222E0,-3.191770986E-2,2.527455091E-1
6.122750176E0,1.131627917E0,1.325577646E-1,2.159408629E-1
6.132750176E0,8.652906418E-1,3.417791128E-1,2.101376504E-1
6.142750176E0,6.805039048E-1,5.091561675E-1,1.687515229E-1
6.152750176E0,6.420193911E-1,4.447098970E-1,2.160935849E-1
6.162750176E0,5.569564104E-1,2.464841306E-1,1.773036420E-1
6.172750176E0,2.590068579E-1,1.902845204E-1,5.345070735E-3
6.182750176E0,-4.123340547E-2,-4.120286107E-1,1.406517178E-1
6.192750176E0,-2.321287990E-2,-5.948300362E-1,1.811215430E-1
6.202750176E0,1.293507218E-1,-5.209153295E-1,1.947132945E-1
6.212750176E0,2.331978083E-1,-4.657847583E-1,2.105957866E-1
6.222750176E0,1.902845204E-1,-3.608686328E-1,2.014328092E-1
6.232750176E0,1.343903504E-2,-2.509129047E-1,1.365283877E-1
6.242750176E0,-1.298088580E-1,-1.711949855E-1,8.704829961E-2
6.252750176E0,-2.296853364E-1,-1.328631938E-1,3.130684420E-2
6.262750176E0,-2.528982162E-1,-1.499674171E-1,-6.566801574E-3
6.272750176E0,-2.315179259E-1,-2.035708427E-1,-2.641992271E-2
6.282750176E0,-1.878410578E-1,-2.608394623E-1,-1.832595654E-2
6.292750176E0,-8.888089657E-2,-3.297145069E-1,1.985311974E-3
6.302750176E0,-1.970040426E-2,-3.707951903E-1,2.229658142E-2
6.312750176E0,-2.076941915E-2,-3.781255782E-1,2.229658142E-2
6.322750176E0,-2.840523422E-2,-3.634648323E-1,1.878410578E-2
6.332750176E0,1.206458826E-2,-3.568980098E-1,1.863138936E-2
6.342750176E0,1.154535338E-1,-3.740022480E-1,-2.290744567E-3
6.352750176E0,2.272418737E-1,-3.825543523E-1,-1.237002108E-2
6.362750176E0,2.936734557E-1,-3.940080702E-1,-3.329215571E-2
6.372750176E0,2.800817192E-1,-3.891211748E-1,-4.291328415E-2
6.382750176E0,1.867720485E-1,-3.863722682E-1,-5.742133409E-2
6.392750176E0,1.099557430E-1,-3.269656301E-1,-8.506298810E-2
6.402750176E0,9.651670605E-2,-2.289217561E-1,-1.113301888E-1
6.412750176E0,9.346238524E-2,-1.725694388E-1,-1.159116775E-1
6.422750176E0,5.772676691E-2,-1.608102769E-1,-1.024726480E-1
6.432750176E0,1.328631863E-2,-1.295034289E-1,-8.750644326E-2
6.442750176E0,-4.245513305E-2,-9.086620808E-2,-8.353582025E-2
6.452750176E0,-7.849618047E-2,-4.352414981E-2,-8.567385375E-2
6.462750176E0,-7.651086897E-2,-6.719517522E-3,-8.185594529E-2
6.472750176E0,-6.841690838E-2,3.878994286E-2,-8.032877743E-2
6.482750176E0,-6.032294407E-2,9.040805697E-2,-8.368854225E-2
6.492750176E0,-5.849034712E-2,1.481348276E-1,-1.041525230E-1
6.502750176E0,-5.054909736E-2,1.960877478E-1,-1.223257631E-1
6.512750176E0,-4.703662544E-2,2.218967974E-1,-1.319468915E-1
6.522750176E0,-6.276640296E-2,1.997529417E-1,-1.319468915E-1
6.532750176E0,-7.101308554E-2,1.652390510E-1,-1.200350225E-1
6.542750176E0,-7.574728876E-2,1.492038369E-1,-1.114829108E-1
6.552750176E0,-8.292495459E-2,1.258382350E-1,-1.030835137E-1
6.562750176E0,-7.895433158E-2,1.012509167E-1,-9.468411654E-2
6.572750176E0,-7.834346592E-2,5.467243865E-2,-8.277224004E-2
6.582750176E0,-8.170322329E-2,2.626720630E-2,-7.559457421E-2
6.592750176E0,-7.437284291E-2,2.764165215E-2,-7.559457421E-2
6.602750176E0,-7.330382615E-2,3.741549700E-2,-7.422012836E-2
6.612750176E0,-8.353582025E-2,7.040221989E-2,-7.528914511E-2
6.622750176E0,-8.597928286E-2,7.773260027E-2,-7.284568250E-2
6.632750176E0,-8.246681094E-2,9.254608303E-2,-7.269296050E-2
6.642750176E0,-7.757988572E-2,9.743300825E-2,-7.391469181E-2
6.652750176E0,-8.613199741E-2,8.994990587E-2,-7.391469181E-2
6.662750176E0,-9.208793938E-2,7.651086897E-2,-6.918048859E-2
6.672750176E0,-9.193521738E-2,5.925392732E-2,-6.551529467E-2
6.682750176E0,-8.323039114E-2,4.459316283E-2,-6.566801667E-2
6.692750176E0,-7.574728876E-2,3.375030309E-2,-6.200282276E-2
6.702750176E0,-6.597344577E-2,4.718934000E-2,-5.711590126E-2
6.712750176E0,-3.054326167E-3,2.391537428E-1,-4.764748737E-2
6.722750176E0,-1.007927675E-2,2.121229619E-1,-5.757404864E-2
6.732750176E0,-5.696318299E-2,1.197295859E-1,-5.558873713E-2
6.742750176E0,-7.086037099E-2,1.513418704E-1,-5.406157300E-2
6.752750176E0,-6.154467165E-2,2.054034323E-1,-5.635231733E-2
6.762750176E0,-5.696318299E-2,2.287690341E-1,-5.619960278E-2
6.772750176E0,-4.963280261E-2,2.338086665E-1,-5.619960278E-2
6.782750176E0,-4.459316283E-2,2.277000248E-1,-5.253441259E-2
6.792750176E0,-4.321871698E-2,2.092213482E-1,-4.902193695E-2
6.802750176E0,-4.413501546E-2,1.872301996E-1,-4.291328415E-2
6.812750176E0,-4.764748737E-2,1.600466967E-1,-3.207042441E-2
6.822750176E0,-5.864306539E-2,1.623374373E-1,-2.718350291E-2
6.832750176E0,-5.894849449E-2,1.869247705E-1,-2.458732575E-2
6.842750176E0,-5.528330430E-2,1.930334121E-1,-1.847867295E-2
6.852750176E0,-6.154467165E-2,2.040289938E-1,-1.114829071E-2
6.862750176E0,-6.429356337E-2,2.309070677E-1,-8.552113548E-3
6.872750176E0,-6.230825558E-2,2.787072659E-1,-2.138028387E-3
6.882750176E0,-5.299255997E-2,3.191770911E-1,5.345070735E-3
6.892750176E0,-5.253441259E-2,3.901901841E-1,1.542434748E-2
6.902750176E0,-4.688390717E-2,4.320344329E-1,2.306016348E-2
6.912750176E0,-4.688390717E-2,4.331034720E-1,3.039054573E-2
6.922750176E0,-5.177082866E-2,4.367686510E-1,3.527746722E-2
6.932750176E0,-5.161811411E-2,4.269948006E-1,2.794708498E-2
6.942750176E0,-4.795292020E-2,4.208861589E-1,3.390302137E-2
6.952750176E0,-4.276056588E-2,4.037819207E-1,3.878994286E-2
6.962750176E0,-3.970624134E-2,3.462078869E-1,3.970624134E-2
6.972750176E0,-2.290744707E-2,4.993823469E-1,6.612616032E-2
6.982750176E0,3.451388702E-2,6.313292384E-1,4.963280261E-2
6.992750176E0,4.703662544E-2,4.978551865E-1,3.787364438E-2
7.002750176E0,1.970040426E-2,1.814269722E-1,2.641992271E-2
7.012750176E0,-2.397646010E-2,-9.132435173E-2,2.260201424E-2
7.022750176E0,-4.046982154E-2,-1.514945775E-1,1.618792862E-2
7.032750176E0,-3.039054573E-2,-6.429356337E-2,9.315694682E-3
7.042750176E0,-1.527163084E-3,1.101084575E-1,5.345070735E-3
7.052750176E0,1.130100712E-2,1.704314053E-1,3.207042580E-3
7.062750176E0,-6.414085161E-3,1.003346145E-1,4.123340361E-3
7.072750176E0,-1.786780916E-2,2.412917651E-2,4.886921961E-3
7.082750176E0,-2.244929783E-2,-1.679879380E-3,1.069014193E-3
7.092750176E0,-1.313360315E-2,3.894266114E-2,-1.069014193E-3
7.102750176E0,0.000000000E0,7.834346592E-2,-3.359758761E-3
7.112750176E0,3.512475174E-3,9.056077152E-2,-4.581489135E-3
7.122750176E0,1.221730490E-3,7.223481685E-2,-2.138028387E-3
7.132750176E0,-7.024950348E-3,4.398229718E-2,-7.177666761E-3
7.142750176E0,-1.695151068E-2,4.871650413E-2,-9.621127509E-3
7.152750176E0,-1.618792862E-2,9.896016866E-2,-1.053742506E-2
7.162750176E0,-1.221730467E-2,1.798998117E-1,-6.414085161E-3
7.172750176E0,-2.901609987E-3,1.200350225E-1,-6.719517522E-3
7.182750176E0,-1.099557430E-2,-3.588833287E-2,-2.748893574E-3
7.192750176E0,-2.443460980E-3,-3.451388702E-2,-1.130100712E-2
7.202750176E0,5.711590126E-2,1.316414624E-1,-1.985311974E-3
7.212750176E0,6.414084882E-2,1.574505121E-1,-1.832595794E-3
7.222750176E0,4.413501546E-2,8.735372871E-2,-4.581489135E-3
7.232750176E0,3.451388702E-2,6.154467165E-2,-1.572977938E-2
7.242750176E0,4.214970022E-2,1.572978050E-1,-1.404990070E-2
7.252750176E0,4.153883830E-2,2.075414658E-1,-1.252273750E-2
7.262750176E0,4.077525437E-2,1.695151031E-1,-7.788531948E-3
7.272750176E0,1.985312067E-2,5.283984542E-2,-2.290744567E-3
7.282750176E0,4.581489135E-3,-8.704829961E-3,2.290744567E-3
7.292750176E0,1.069014193E-3,-2.351831272E-2,5.803219974E-3
7.302750176E0,6.261368748E-3,-4.306599870E-2,7.024950348E-3
7.312750176E0,6.261368748E-3,-4.306599870E-2,7.024950348E-3
7.322750176E0,-3.054326226E-4,-1.252273750E-2,5.955935922E-3
7.332750176E0,1.832595794E-3,2.306016348E-2,1.099557430E-2
7.342750176E0,-6.108652451E-4,1.939497143E-2,9.773843922E-3
7.352750176E0,3.359758761E-3,-1.527163113E-4,7.177666761E-3
7.362750176E0,3.970623948E-3,-5.650503561E-2,1.985311974E-3
7.372750176E0,-2.901609987E-3,-1.007927656E-1,6.108652451E-4
7.382750176E0,-4.276056774E-3,-9.086620808E-2,-3.054326167E-3
7.392750176E0,-3.207042580E-3,-7.376197726E-2,-2.901609987E-3
7.402750176E0,-7.635815418E-4,-7.376197726E-2,-2.901609987E-3
7.412750176E0,-2.290744567E-3,-5.406157300E-2,-1.679879380E-3
7.422750176E0,-3.665191587E-3,-3.695734590E-2,-2.748893574E-3
7.432750176E0,-6.261368748E-3,-2.474004216E-2,-1.527163084E-3
7.442750176E0,-1.007927675E-2,-1.740965992E-2,-1.374446787E-3
7.452750176E0,-1.007927675E-2,-1.863138936E-2,-2.596177394E-3
7.462750176E0,-2.596177394E-3,-1.863138936E-2,-1.527163113E-4
7.472750176E0,7.177666761E-3,-1.603521220E-2,-1.374446787E-3
7.482750176E0,1.695151068E-2,-8.552113548E-3,-1.374446787E-3
7.492750176E0,1.450804994E-2,-1.099557430E-2,-1.374446787E-3
7.502750176E0,3.359758761E-3,-5.039638374E-3,-1.374446787E-3
7.512750176E0,-6.566801574E-3,-2.596177394E-3,-1.374446787E-3
7.522750176E0,-6.566801574E-3,8.399397135E-3,-1.221730490E-3
7.532750176E0,-4.276056774E-3,1.572977938E-2,-1.221730490E-3
7.542750176E0,-5.497787148E-3,2.306016348E-2,-2.443460980E-3
7.552750176E0,-8.093964309E-3,2.916881628E-2,-2.443460980E-3
7.562750176E0,-9.162978269E-3,2.183843218E-2,-1.221730490E-3
7.572750176E0,-6.719517522E-3,1.450804994E-2,-1.221730490E-3
7.582750176E0,-3.054326226E-4,-2.596177394E-3,-1.527163113E-4
7.592750176E0,7.024950348E-3,-1.221730490E-3,-1.374446787E-3
7.602750176E0,1.313360315E-2,-1.221730490E-3,-2.596177394E-3
7.612750176E0,1.695151068E-2,-7.330383174E-3,-2.596177394E-3
7.622750176E0,1.908953860E-2,1.237002108E-2,-2.443460980E-3
7.632750176E0,1.420261711E-2,1.343903504E-2,-3.665191587E-3
7.642750176E0,5.650503561E-3,1.588249579E-2,-3.665191587E-3
7.652750176E0,1.832595794E-3,1.832595654E-2,-3.665191587E-3
7.662750176E0,4.276056774E-3,1.710422710E-2,-1.221730490E-3
7.672750176E0,1.985311974E-3,1.206458826E-2,-0.000000000E0
7.682750176E0,-1.832595794E-3,1.572977938E-2,-1.221730490E-3
7.692750176E0,-3.054326167E-3,2.306016348E-2,-1.221730490E-3
7.702750176E0,-5.345070735E-3,1.084285788E-2,-2.443460980E-3
7.712750176E0,-7.635815535E-3,-6.414085161E-3,-2.596177394E-3
7.722750176E0,-1.007927675E-2,-1.374446787E-2,-1.374446787E-3
7.732750176E0,-1.237002108E-2,-2.474004216E-2,-1.374446787E-3
7.742750176E0,-8.704829961E-3,-2.474004216E-2,-3.817907767E-3
7.752750176E0,-8.704829961E-3,-2.229658142E-2,-3.817907767E-3
7.762750176E0,-6.414085161E-3,-1.130100712E-2,-1.374446787E-3
7.772750176E0,-3.970623948E-3,-1.252273750E-2,1.069014193E-3
7.782750176E0,-2.748893574E-3,-1.252273750E-2,1.069014193E-3
7.792750176E0,-1.007927675E-2,-1.496619824E-2,1.069014193E-3
7.802750176E0,-7.635815535E-3,-1.374446787E-2,1.069014193E-3
7.812750176E0,-9.926560335E-3,-2.229658142E-2,3.512475174E-3
7.822750176E0,-1.237002108E-2,-3.344487399E-2,3.359758761E-3
7.832750176E0,-8.552113548E-3,-3.588833287E-2,2.138028387E-3
7.842750176E0,-8.704829961E-3,-2.962696366E-2,-3.054326226E-4
7.852750176E0,-7.483099122E-3,-2.840523422E-2,-1.527163084E-3
7.862750176E0,-8.857546374E-3,-1.374446787E-2,-1.374446787E-3
7.872750176E0,-6.566801574E-3,1.069014193E-3,-1.527163113E-4
7.882750176E0,-9.010262787E-3,4.581489135E-3,1.221730490E-3
7.892750176E0,-1.145372353E-2,-1.527163084E-3,2.290744567E-3
7.902750176E0,-1.023199316E-2,3.359758761E-3,2.290744567E-3
7.912750176E0,-9.010262787E-3,-3.970623948E-3,2.290744567E-3
7.922750176E0,-6.414085161E-3,-1.618792862E-2,2.290744567E-3
7.932750176E0,-5.039638374E-3,-1.863138936E-2,2.290744567E-3
7.942750176E0,-5.039638374E-3,-2.962696366E-2,9.162978968E-4
7.952750176E0,-1.374446787E-3,-2.596177347E-2,-3.054326226E-4
7.962750176E0,-3.817907767E-3,-2.351831272E-2,9.162978968E-4
7.972750176E0,-5.192354787E-3,-1.007927675E-2,-1.374446787E-3
7.982750176E0,-9.010262787E-3,9.162978968E-4,-1.374446787E-3
7.992750176E0,-7.788531948E-3,4.734205548E-3,-1.527163113E-4
8.002750176E0,-7.788531948E-3,9.162978968E-4,-1.527163113E-4
8.012750176E0,-7.788531948E-3,-2.748893574E-3,1.069014193E-3
8.022750176E0,-7.788531948E-3,9.162978968E-4,-1.527163113E-4
8.032750176E0,-3.970623948E-3,-3.817907767E-3,-1.527163113E-4
8.042750176E0,-2.748893574E-3,-2.596177394E-3,-1.527163113E-4
8.052750176E0,-1.527163084E-3,-6.261368748E-3,-2.596177394E-3
8.062750176E0,9.162978968E-4,-5.039638374E-3,-2.596177394E-3
8.072750176E0,-1.527163084E-3,-1.359175146E-2,-3.817907767E-3
8.082750176E0,-5.192354787E-3,-1.130100712E-2,-2.596177394E-3
8.092750176E0,-3.970623948E-3,-6.261368748E-3,-1.374446787E-3
8.102750176E0,-4.123340361E-3,-1.527163113E-4,-1.374446787E-3
8.112750176E0,-6.566801574E-3,3.512475174E-3,-1.374446787E-3
8.122750176E0,-4.123340361E-3,7.177666761E-3,-0.000000000E0
8.132750176E0,-1.679879380E-3,8.399397135E-3,-1.221730490E-3
8.142750176E0,-1.679879380E-3,5.955935922E-3,1.069014193E-3
8.152750176E0,-2.901609987E-3,4.734205548E-3,-1.527163113E-4
8.162750176E0,-1.679879380E-3,1.069014193E-3,-1.374446787E-3
8.172750176E0,3.359758761E-3,-7.483099122E-3,-2.596177394E-3
8.182750176E0,4.581489135E-3,-7.483099122E-3,-1.374446787E-3
8.192750176E0,5.803219974E-3,-7.483099122E-3,-1.527163113E-4
8.202750176E0,9.162978968E-4,-1.114829071E-2,-1.527163113E-4
8.212750176E0,-2.748893574E-3,-6.261368748E-3,1.069014193E-3
8.222750176E0,-4.581489484E-4,-1.527163113E-4,-1.527163113E-4
8.232750176E0,-4.581489484E-4,2.290744567E-3,-1.527163113E-4
8.242750176E0,-2.901609987E-3,3.512475174E-3,1.069014193E-3
8.252750176E0,-1.679879380E-3,4.734205548E-3,1.069014193E-3
8.262750176E0,-4.581489484E-4,4.734205548E-3,-1.527163113E-4
8.272750176E0,3.207042580E-3,3.512475174E-3,1.069014193E-3
8.282750176E0,3.359758761E-3,-2.596177394E-3,-1.527163113E-4
8.292750176E0,4.428773187E-3,2.290744567E-3,1.069014193E-3
8.302750176E0,3.207042580E-3,4.734205548E-3,-1.527163113E-4
8.312750176E0,2.138028387E-3,-2.596177394E-3,1.069014193E-3
8.322750176E0,3.207042580E-3,8.399397135E-3,1.221730490E-3
8.332750176E0,7.635815418E-4,8.399397135E-3,2.443460980E-3
8.342750176E0,-4.123340361E-3,8.399397135E-3,1.221730490E-3
8.352750176E0,-2.901609987E-3,5.955935922E-3,1.069014193E-3
8.362750176E0,6.108652451E-4,1.450804994E-2,1.221730490E-3
8.372750176E0,-1.679879380E-3,4.734205548E-3,1.069014193E-3
8.382750176E0,-4.581489484E-4,9.621127509E-3,-0.000000000E0
8.392750176E0,3.207042580E-3,9.621127509E-3,-0.000000000E0
8.402750176E0,4.428773187E-3,3.512475174E-3,-1.527163113E-4
8.412750176E0,6.872233935E-3,7.330383174E-3,1.069014193E-3
8.422750176E0,1.985311974E-3,4.734205548E-3,2.290744567E-3
8.432750176E0,-4.581489484E-4,3.512475174E-3,1.069014193E-3
8.442750176E0,9.162978968E-4,-1.527163113E-4,-1.527163113E-4
8.452750176E0,3.207042580E-3,1.069014193E-3,-1.374446787E-3
8.462750176E0,4.428773187E-3,7.330383174E-3,-2.596177394E-3
8.472750176E0,1.985311974E-3,4.734205548E-3,-1.374446787E-3
8.482750176E0,2.138028387E-3,-1.374446787E-3,-1.527163113E-4
8.492750176E0,-4.581489484E-4,1.069014193E-3,-1.527163113E-4
8.502750176E0,1.985311974E-3,5.955935922E-3,-1.527163113E-4
8.512750176E0,9.162978968E-4,-1.374446787E-3,-1.527163113E-4
8.522750176E0,1.985311974E-3,2.290744567E-3,1.069014193E-3
8.532750176E0,7.024950348E-3,2.443460980E-3,-1.527163113E-4
8.542750176E0,4.428773187E-3,5.955935922E-3,2.290744567E-3
8.552750176E0,4.581489135E-3,-1.527163113E-4,1.069014193E-3
8.562750176E0,3.207042580E-3,3.512475174E-3,1.069014193E-3
8.572750176E0,4.428773187E-3,3.512475174E-3,1.069014193E-3
8.582750176E0,8.093964309E-3,6.108652335E-3,2.290744567E-3
8.592750176E0,6.872233935E-3,7.330383174E-3,2.290744567E-3
8.602750176E0,5.803219974E-3,2.290744567E-3,2.290744567E-3
8.612750176E0,-1.679879380E-3,2.290744567E-3,2.290744567E-3
8.622750176E0,7.635815418E-4,4.734205548E-3,3.512475174E-3
8.632750176E0,3.054326167E-3,1.695151068E-2,3.665191587E-3
8.642750176E0,1.985311974E-3,1.206458826E-2,3.665191587E-3
8.652750176E0,7.635815418E-4,5.955935922E-3,1.069014193E-3
8.662750176E0,-4.581489484E-4,8.399397135E-3,-0.000000000E0
8.672750176E0,-4.581489484E-4,8.399397135E-3,-0.000000000E0
8.682750176E0,3.359758761E-3,-1.374446787E-3,-1.527163113E-4
8.692750176E0,3.359758761E-3,-3.817907767E-3,-1.374446787E-3
8.702750176E0,-3.054326226E-4,-6.261368748E-3,-1.374446787E-3
8.712750176E0,2.138028387E-3,-1.374446787E-3,-2.596177394E-3
8.722750176E0,-2.748893574E-3,-3.817907767E-3,-2.596177394E-3
8.732750176E0,-3.970623948E-3,-5.039638374E-3,-1.374446787E-3
8.742750176E0,-3.970623948E-3,-2.596177394E-3,-1.374446787E-3
8.752750176E0,-5.345070735E-3,1.069014193E-3,-1.527163113E-4
8.762750176E0,-5.192354787E-3,-5.192354787E-3,-1.527163113E-4
8.772750176E0,-3.970623948E-3,-3.817907767E-3,-1.374446787E-3
8.782750176E0,-1.527163084E-3,-5.039638374E-3,-1.374446787E-3
8.792750176E0,7.635815418E-4,-1.527163113E-4,-1.374446787E-3
8.802750176E0,2.138028387E-3,-1.374446787E-3,1.069014193E-3
8.812750176E0,1.985311974E-3,1.069014193E-3,1.069014193E-3
8.822750176E0,7.635815418E-4,7.177666761E-3,1.069014193E-3
8.832750176E0,3.207042580E-3,4.734205548E-3,1.069014193E-3
8.842750176E0,7.635815418E-4,3.512475174E-3,-1.527163113E-4
8.852750176E0,1.985311974E-3,1.069014193E-3,1.069014193E-3
8.862750176E0,7.635815418E-4,2.290744567E-3,2.290744567E-3
8.872750176E0,2.138028387E-3,-1.527163113E-4,1.069014193E-3
8.882750176E0,9.162978968E-4,-2.596177394E-3,2.290744567E-3
8.892750176E0,9.162978968E-4,-1.527163113E-4,2.290744567E-3
8.902750176E0,9.162978968E-4,-3.817907767E-3,3.512475174E-3
8.912750176E0,-3.054326226E-4,-2.596177394E-3,2.290744567E-3
8.922750176E0,-4.581489484E-4,-1.527163113E-4,1.069014193E-3
8.932750176E0,-3.054326226E-4,-5.039638374E-3,2.290744567E-3
8.942750176E0,4.581489135E-3,-1.374446787E-3,1.069014193E-3
8.952750176E0,7.024950348E-3,-1.527163113E-4,1.069014193E-3
8.962750176E0,4.581489135E-3,-3.817907767E-3,-1.527163113E-4
8.972750176E0,9.162978968E-4,-6.261368748E-3,1.069014193E-3
8.982750176E0,9.162978968E-4,-3.817907767E-3,-1.527163113E-4
8.992750176E0,-4.581489484E-4,2.290744567E-3,-1.374446787E-3
9.002750176E0,1.985311974E-3,3.512475174E-3,-1.527163113E-4
9.012750176E0,-2.901609987E-3,7.177666761E-3,-0.000000000E0
9.022750176E0,-6.719517522E-3,1.084285788E-2,-0.000000000E0
9.032750176E0,-7.788531948E-3,9.621127509E-3,-0.000000000E0
9.042750176E0,-2.901609987E-3,7.177666761E-3,2.443460980E-3
9.052750176E0,-2.901609987E-3,-1.374446787E-3,3.512475174E-3
9.062750176E0,-3.054326226E-4,-5.039638374E-3,1.069014193E-3
9.072750176E0,9.162978968E-4,-3.817907767E-3,1.069014193E-3
9.082750176E0,-1.527163084E-3,-6.261368748E-3,1.069014193E-3
9.092750176E0,-1.527163084E-3,-2.596177394E-3,-1.527163113E-4
9.102750176E0,1.985311974E-3,1.069014193E-3,-1.374446787E-3
9.112750176E0,3.207042580E-3,1.069014193E-3,-1.527163113E-4
9.122750176E0,1.985311974E-3,5.955935922E-3,1.069014193E-3
9.132750176E0,7.635815418E-4,4.734205548E-3,2.290744567E-3
9.142750176E0,-4.581489484E-4,2.290744567E-3,1.069014193E-3
9.152750176E0,-3.054326226E-4,-1.374446787E-3,1.069014193E-3
9.162750176E0,-3.054326226E-4,-3.817907767E-3,2.290744567E-3
9.172750176E0,3.359758761E-3,-2.596177394E-3,2.290744567E-3
9.182750176E0,3.359758761E-3,1.069014193E-3,2.290744567E-3
9.192750176E0,2.138028387E-3,-2.596177394E-3,1.069014193E-3
9.202750176E0,3.359758761E-3,-1.527163113E-4,1.069014193E-3
9.212750176E0,5.650503561E-3,2.290744567E-3,1.069014193E-3
9.222750176E0,4.428773187E-3,7.177666761E-3,1.069014193E-3
9.232750176E0,3.207042580E-3,5.955935922E-3,2.290744567E-3
9.242750176E0,7.635815418E-4,9.621127509E-3,2.443460980E-3
9.252750176E0,7.635815418E-4,9.621127509E-3,2.443460980E-3
9.262750176E0,7.635815418E-4,5.955935922E-3,2.290744567E-3
9.272750176E0,1.985311974E-3,1.069014193E-3,1.069014193E-3
9.282750176E0,4.581489135E-3,-1.527163113E-4,1.069014193E-3
9.292750176E0,7.635815418E-4,5.955935922E-3,1.069014193E-3
9.302750176E0,1.985311974E-3,2.290744567E-3,1.069014193E-3
9.312750176E0,-4.581489484E-4,-1.527163113E-4,-1.527163113E-4
9.322750176E0,9.162978968E-4,-1.374446787E-3,-1.374446787E-3
9.332750176E0,-1.527163084E-3,-2.596177394E-3,-1.527163113E-4
9.342750176E0,7.635815418E-4,2.290744567E-3,-1.374446787E-3
9.352750176E0,-4.123340361E-3,2.290744567E-3,-1.527163113E-4
9.362750176E0,-5.345070735E-3,-1.527163113E-4,-1.527163113E-4
9.372750176E0,-4.123340361E-3,-1.527163113E-4,-1.374446787E-3
9.382750176E0,-2.901609987E-3,-1.374446787E-3,-1.374446787E-3
9.392750176E0,-3.054326226E-4,-3.817907767E-3,-1.527163113E-4
9.402750176E0,4.581489135E-3,-8.704829961E-3,-2.596177394E-3
9.412750176E0,4.581489135E-3,-3.817907767E-3,-1.374446787E-3
9.422750176E0,2.138028387E-3,-2.596177394E-3,-1.374446787E-3
9.432750176E0,-4.581489484E-4,3.512475174E-3,-1.374446787E-3
9.442750176E0,-4.581489484E-4,2.290744567E-3,-1.527163113E-4
9.452750176E0,-4.581489484E-4,5.955935922E-3,-1.527163113E-4
9.462750176E0,-2.901609987E-3,5.955935922E-3,1.069014193E-3
9.472750176E0,-4.123340361E-3,2.290744567E-3,1.069014193E-3
9.482750176E0,-1.679879380E-3,-1.527163113E-4,1.069014193E-3
9.492750176E0,9.162978968E-4,-7.483099122E-3,2.290744567E-3
9.502750176E0,9.162978968E-4,-7.483099122E-3,2.290744567E-3
9.512750176E0,9.162978968E-4,-9.926560335E-3,1.069014193E-3
9.522750176E0,-1.527163084E-3,-5.039638374E-3,3.512475174E-3
9.532750176E0,-1.527163084E-3,-5.039638374E-3,3.512475174E-3
9.542750176E0,-4.123340361E-3,-1.374446787E-3,3.512475174E-3
9.552750176E0,-1.527163084E-3,-2.596177394E-3,4.734205548E-3
9.562750176E0,2.138028387E-3,-1.527163113E-4,2.290744567E-3
9.572750176E0,9.162978968E-4,-6.261368748E-3,-1.527163113E-4
9.582750176E0,-3.054326226E-4,-8.704829961E-3,-1.527163113E-4
9.592750176E0,3.359758761E-3,-7.483099122E-3,1.069014193E-3
9.602750176E0,3.359758761E-3,-9.926560335E-3,1.069014193E-3
9.612750176E0,2.138028387E-3,-7.483099122E-3,2.290744567E-3
9.622750176E0,-5.345070735E-3,3.512475174E-3,2.290744567E-3
9.632750176E0,-5.345070735E-3,3.512475174E-3,3.512475174E-3
9.642750176E0,-6.566801574E-3,-3.054326226E-4,1.069014193E-3
9.652750176E0,-5.345070735E-3,7.177666761E-3,-0.000000000E0
9.662750176E0,-5.345070735E-3,8.399397135E-3,-0.000000000E0
9.672750176E0,-1.679879380E-3,3.512475174E-3,-1.527163113E-4
9.682750176E0,-4.581489484E-4,2.290744567E-3,-1.527163113E-4
9.692750176E0,3.359758761E-3,-1.527163113E-4,-1.527163113E-4
9.702750176E0,-4.581489484E-4,3.512475174E-3,-1.527163113E-4
9.712750176E0,-1.527163084E-3,-7.483099122E-3,1.069014193E-3
9.722750176E0,-1.527163084E-3,-6.261368748E-3,1.069014193E-3
9.732750176E0,-5.192354787E-3,-7.635815535E-3,-2.596177394E-3
9.742750176E0,-3.970623948E-3,-8.704829961E-3,-1.374446787E-3
9.752750176E0,-1.527163084E-3,-2.596177394E-3,-1.374446787E-3
9.762750176E0,-2.748893574E-3,-3.817907767E-3,-1.527163113E-4
9.772750176E0,-2.748893574E-3,-5.039638374E-3,1.069014193E-3
9.782750176E0,-2.748893574E-3,-7.483099122E-3,-1.374446787E-3
9.792750176E0,-2.748893574E-3,-5.039638374E-3,-1.527163113E-4
9.802750176E0,2.138028387E-3,-3.817907767E-3,1.069014193E-3
9.812750176E0,-1.527163084E-3,-1.237002108E-2,-1.527163113E-4
9.822750176E0,-2.748893574E-3,-8.704829961E-3,-1.527163113E-4
9.832750176E0,-3.970623948E-3,-5.039638374E-3,1.069014193E-3
9.842750176E0,-1.527163084E-3,-3.817907767E-3,2.290744567E-3
9.852750176E0,-3.054326226E-4,-1.374446787E-3,3.512475174E-3
9.862750176E0,1.985311974E-3,5.955935922E-3,2.290744567E-3
9.872750176E0,-4.581489484E-4,4.734205548E-3,2.290744567E-3
9.882750176E0,2.138028387E-3,-2.596177394E-3,1.069014193E-3
9.892750176E0,9.162978968E-4,-5.039638374E-3,1.069014193E-3
9.902750176E0,4.581489135E-3,-1.527163113E-4,1.069014193E-3
9.912750176E0,9.162978968E-4,-5.039638374E-3,-1.527163113E-4
9.922750176E0,-1.527163084E-3,-1.374446787E-3,-1.527163113E-4
9.932750176E0,-4.123340361E-3,4.734205548E-3,-1.527163113E-4
9.942750176E0,-5.345070735E-3,1.069014193E-3,-1.527163113E-4
9.952750176E0,-6.566801574E-3,3.512475174E-3,1.069014193E-3
9.962750176E0,-7.635815535E-3,-7.635815535E-3,-1.374446787E-3
9.972750176E0,-2.351831272E-2,-2.000583708E-2,-2.596177394E-3
9.982750176E0,-2.596177347E-2,-2.122756653E-2,-1.527163113E-4
9.992750176E0,-2.214386500E-2,-2.977968007E-2,9.162978968E-4
1.000275018E1,-1.847867295E-2,-2.489275858E-2,-1.527163113E-4
1.001275018E1,-6.414085161E-3,-1.007927675E-2,2.290744567E-3
1.002275018E1,4.428773187E-3,8.552113548E-3,-1.221730490E-3
1.003275018E1,9.315694682E-3,8.552113548E-3,-1.527163113E-4
1.004275018E1,1.053742506E-2,7.330383174E-3,-1.527163113E-4
1.005275018E1,1.679879427E-2,2.443460980E-3,2.290744567E-3
1.006275018E1,2.901609987E-2,5.039638374E-3,4.734205548E-3
1.007275018E1,2.535090782E-2,5.039638374E-3,1.069014193E-3
1.008275018E1,1.802052557E-2,-2.443460980E-3,-1.527163113E-4
1.013545403E1,4.214970022E-2,3.833179548E-2,-1.221730467E-2
1.014545403E1,5.925392732E-2,4.474587739E-2,-1.954768784E-2
1.015545403E1,7.131851465E-2,6.215553731E-2,-2.916881628E-2
1.016545403E1,7.024950534E-2,5.222897977E-2,-3.054326214E-2
1.017545403E1,7.040221989E-2,3.756821156E-2,-2.443460934E-2
1.018545403E1,7.788532227E-2,3.268129006E-2,-2.687807009E-2
1.019545403E1,7.788532227E-2,2.290744707E-2,-2.336559631E-2
1.020545403E1,7.086037099E-2,1.985311974E-3,-9.926560335E-3
1.021545403E1,5.742133409E-2,-1.298088674E-2,2.138028387E-3
1.022545403E1,3.176499158E-2,-1.588249579E-2,1.313360315E-2
1.023545403E1,1.939497143E-2,-4.886921961E-3,1.695151068E-2
1.024545403E1,2.306016348E-2,-6.108652335E-3,1.695151068E-2
1.025545403E1,2.183843218E-2,-1.099557430E-2,1.817324013E-2
1.026545403E1,2.061670274E-2,-1.481348183E-2,1.924225502E-2
1.027545403E1,2.443460934E-2,-2.580905706E-2,1.802052557E-2
1.028545403E1,3.054326214E-2,-2.443460934E-2,1.679879427E-2
1.029545403E1,2.672535367E-2,-1.466076635E-2,1.191187184E-2
1.030545403E1,2.443460934E-2,-1.710422710E-2,1.069014147E-2
1.031545403E1,2.076941915E-2,-2.443460934E-2,9.468411095E-3
1.032545403E1,1.954768784E-2,-2.825251780E-2,9.468411095E-3
1.033545403E1,2.443460934E-2,-2.687807009E-2,1.191187184E-2
1.034545403E1,3.649919853E-2,-9.621127509E-3,1.191187184E-2
1.035545403E1,4.138612002E-2,2.748893574E-3,9.621127509E-3
1.036545403E1,4.245513305E-2,7.635815535E-3,1.084285788E-2
1.037545403E1,3.878994286E-2,1.007927675E-2,9.621127509E-3
1.038545403E1,3.619376570E-2,1.863138936E-2,7.177666761E-3
1.039545403E1,3.985895589E-2,2.962696366E-2,6.108652335E-3
1.040545403E1,5.436700583E-2,4.703662544E-2,8.552113548E-3
1.041545403E1,5.543602258E-2,5.681046844E-2,9.926560335E-3
1.042545403E1,4.810563847E-2,5.543602258E-2,1.237002108E-2
1.043545403E1,4.321871698E-2,5.665775016E-2,1.114829071E-2
1.044545403E1,3.970624134E-2,4.306599870E-2,9.773843922E-3
1.045545403E1,4.337143153E-2,3.711006418E-2,4.886921961E-3
1.046545403E1,4.718934000E-2,3.222314268E-2,-1.221730490E-3
1.047545403E1,4.352414981E-2,2.611448988E-2,-6.108652335E-3
1.048545403E1,3.878994286E-2,1.496619824E-2,-1.374446787E-3
1.049545403E1,4.382958263E-2,-2.138028387E-3,2.290744567E-3
1.050545403E1,5.009094998E-2,-1.069014147E-2,5.803219974E-3
1.051545403E1,5.619960278E-2,-1.557706390E-2,9.468411095E-3
1.052545403E1,5.375614017E-2,-3.359758761E-3,1.557706390E-2
1.053545403E1,5.222897977E-2,1.130100712E-2,1.817324013E-2
1.054545403E1,6.322455406E-2,2.733621933E-2,1.939497143E-2
1.055545403E1,6.918048859E-2,3.726277873E-2,2.321287990E-2
1.056545403E1,6.429356337E-2,3.970624134E-2,2.321287990E-2
1.057545403E1,6.307183951E-2,3.970624134E-2,2.199114859E-2
1.058545403E1,5.940664560E-2,3.833179548E-2,1.832595654E-2
1.059545403E1,5.696318299E-2,3.833179548E-2,1.710422710E-2
1.060545403E1,5.451972410E-2,3.588833287E-2,1.343903504E-2
1.061545403E1,5.207626149E-2,3.466660157E-2,1.099557430E-2
1.062545403E1,5.696318299E-2,3.848451003E-2,8.552113548E-3
1.063545403E1,6.185010448E-2,4.214970022E-2,1.099557430E-2
1.064545403E1,6.414084882E-2,5.436700583E-2,1.466076635E-2
1.065545403E1,6.154467165E-2,5.925392732E-2,1.603521220E-2
1.066545403E1,5.528330430E-2,6.902777404E-2,1.970040426E-2
1.067545403E1,5.650503561E-2,7.391469181E-2,1.847867295E-2
1.068545403E1,5.528330430E-2,7.269296050E-2,1.725694351E-2
1.069545403E1,5.787948146E-2,6.047565863E-2,1.237002108E-2
1.070545403E1,5.436700583E-2,4.199698567E-2,1.343903504E-2
1.071545403E1,4.978551716E-2,2.107485011E-2,1.572977938E-2
1.072545403E1,4.856378585E-2,1.130100712E-2,1.695151068E-2
1.073545403E1,4.627304152E-2,3.970623948E-3,2.183843218E-2
1.074545403E1,4.245513305E-2,1.114829071E-2,2.672535367E-2
1.075545403E1,2.626720630E-2,3.069597855E-2,2.809980139E-2
1.076545403E1,-2.046398632E-2,4.474587739E-2,3.313944116E-2
1.077545403E1,-8.323039114E-2,5.268712714E-2,2.596177347E-2
1.078545403E1,-1.226311997E-1,6.475171447E-2,-7.635815418E-4
1.079545403E1,-1.250746548E-1,6.948592514E-2,7.788531948E-3
1.080545403E1,-9.437867999E-2,6.750060618E-2,-5.650503561E-3
1.081545403E1,-5.054909736E-2,9.850201756E-2,1.145372353E-2
1.082545403E1,-6.719517522E-3,1.284344196E-1,1.282817032E-2
1.083545403E1,-7.635815418E-4,1.430951804E-1,2.626720630E-2
1.084545403E1,1.038470957E-2,1.406517178E-1,5.314527452E-2
1.085545403E1,3.008511290E-2,1.371392459E-1,7.254024595E-2
1.086545403E1,7.208210230E-2,1.215621829E-1,8.949175477E-2
1.087545403E1,1.163698286E-1,1.145372316E-1,1.039998084E-1
1.088545403E1,1.681406647E-1,8.674286306E-2,1.282816976E-1
1.089545403E1,1.991420686E-1,6.979135424E-2,1.501201391E-1
1.090545403E1,2.167044431E-1,3.695734590E-2,1.620320082E-1
1.091545403E1,2.405281961E-1,-1.435533352E-2,1.678352207E-1
1.092545403E1,2.751947939E-1,-3.604105115E-2,1.689042449E-1
1.093545403E1,3.121521473E-1,-5.161811411E-2,1.687515229E-1
1.094545403E1,3.294090927E-1,-6.246097013E-2,1.759291887E-1
1.095545403E1,3.309362531E-1,-8.582656831E-2,1.844813079E-1
1.096545403E1,3.324634135E-1,-1.127046347E-1,1.867720485E-1
1.097545403E1,3.460551500E-1,-1.273654103E-1,1.829541475E-1
1.098545403E1,3.622430861E-1,-1.406517178E-1,1.815796942E-1
1.099545403E1,3.601050675E-1,-1.650863290E-1,1.777617931E-1
1.100545403E1,3.576616049E-1,-1.701259762E-1,1.777617931E-1
1.101545403E1,3.759875596E-1,-1.624901593E-1,1.789835095E-1
1.102545403E1,4.126394689E-1,-1.534798890E-1,1.753183305E-1
1.103545403E1,4.480696619E-1,-1.249219403E-1,1.705841124E-1
1.104545403E1,4.624249935E-1,-9.529497474E-2,1.731802970E-1
1.105545403E1,4.634940028E-1,-7.559457421E-2,1.696678251E-1
1.106545403E1,4.767803252E-1,-6.444628537E-2,1.586722434E-1
1.107545403E1,4.928155243E-1,-7.024950534E-2,1.366810948E-1
1.108545403E1,5.053382516E-1,-9.453139454E-2,1.120937690E-1
1.109545403E1,5.067127347E-1,-1.114829108E-1,8.506298810E-2
1.110545403E1,4.983133376E-1,-1.322523206E-1,4.718934000E-2
1.111545403E1,5.019785166E-1,-1.307251602E-1,1.420261711E-2
1.112545403E1,5.230533481E-1,-1.513418704E-1,5.497787148E-3
1.113545403E1,5.500841737E-1,-1.498146951E-1,6.719517522E-3
1.114545403E1,5.696318150E-1,-1.398881376E-1,1.893682219E-2
1.115545403E1,5.720753074E-1,-1.337794960E-1,4.337143153E-2
1.116545403E1,5.610797405E-1,-1.463022232E-1,6.643159688E-2
1.117545403E1,5.835290551E-1,-1.744020283E-1,8.216137439E-2
1.118545403E1,6.183483601E-1,-2.205223590E-1,8.552113175E-2
1.119545403E1,6.805039048E-1,-2.835941911E-1,7.651086897E-2
1.120545403E1,7.487680912E-1,-3.465133011E-1,6.505715102E-2
1.121545403E1,7.719809413E-1,-4.578435123E-1,5.345070735E-2
1.122545403E1,7.565566301E-1,-6.221662760E-1,4.535674304E-2
1.123545403E1,7.406741381E-1,-7.376197577E-1,3.619376570E-2
1.124545403E1,7.499898076E-1,-8.132143617E-1,3.970623948E-3
1.125545403E1,8.116871715E-1,-8.356636763E-1,-4.505131021E-2
1.126545403E1,8.672759533E-1,-8.678867817E-1,-9.422596544E-2
1.127545403E1,8.688030839E-1,-9.019425511E-1,-1.249219403E-1
1.128545403E1,8.400924206E-1,-9.757044911E-1,-1.569923609E-1
1.129545403E1,8.408560157E-1,-1.050382733E0,-1.768454909E-1
1.130545403E1,8.900306821E-1,-1.049771905E0,-1.782199293E-1
1.131545403E1,9.615018964E-1,-1.079704285E0,-1.528690308E-1
1.132545403E1,1.016937971E0,-1.085354805E0,-1.359175146E-1
1.133545403E1,1.067028880E0,-1.071457624E0,-1.163698286E-1
1.134545403E1,1.121548533E0,-9.937250614E-1,-1.038470939E-1
1.135545403E1,1.197906733E0,-9.095783234E-1,-8.643743396E-2
1.136545403E1,1.226311922E0,-8.136724830E-1,-7.620543987E-2
1.137545403E1,1.211345792E0,-6.727153659E-1,-1.131627858E-1
1.138545403E1,1.164156437E0,-5.146539807E-1,-1.818851233E-1
1.139545403E1,1.139874578E0,-4.266893864E-1,-1.716531366E-1
1.140545403E1,1.140179992E0,-3.396410644E-1,-1.724167168E-1
1.141545403E1,1.159574986E0,-2.044871449E-1,-1.997529417E-1
1.142545403E1,1.153008103E0,-5.757404864E-2,-1.598939747E-1
1.143545403E1,1.105207920E0,5.513058975E-2,-2.122756653E-2
1.144545403E1,1.016327024E0,1.099557430E-1,6.704246253E-2
1.145545403E1,9.462302923E-1,1.151480973E-1,9.773843735E-2
1.146545403E1,9.170614481E-1,9.162978828E-2,9.040805697E-2
1.147545403E1,9.738719463E-1,5.696318299E-2,5.222897977E-2
1.148545403E1,1.057102323E0,-3.130684420E-2,-8.246680722E-3
1.149545403E1,1.127199054E0,-1.528690308E-1,-4.688390717E-2
1.150545403E1,1.241430879E0,-2.716823220E-1,-5.375614017E-2
1.151545403E1,1.316414595E0,-2.761110961E-1,-1.481348183E-2
1.152545403E1,1.320996046E0,-1.437060535E-1,2.000583708E-2
1.153545403E1,1.328173757E0,-1.183551401E-1,9.346238524E-2
1.154545403E1,1.352150202E0,-1.698205322E-1,1.443169117E-1
1.155545403E1,1.325119376E0,-1.727221459E-1,1.589776874E-1
1.156545403E1,1.285565853E0,-1.461495161E-1,1.617265791E-1
1.157545403E1,1.304960847E0,-1.154535338E-1,1.789835095E-1
1.158545403E1,1.335504174E0,-1.078177169E-1,2.044871449E-1
1.159545403E1,1.370018005E0,-1.186605766E-1,2.348776907E-1
1.160545403E1,1.392009139E0,-1.111774743E-1,2.385428846E-1
1.161545403E1,1.388496757E0,-1.221730486E-1,2.446515262E-1
1.162545403E1,1.416596532E0,-1.134682223E-1,2.605340183E-1
1.163545403E1,1.483028054E0,-1.140790880E-1,2.872593701E-1
1.164545403E1,1.560913444E0,-5.329799280E-2,3.179553747E-1
1.165545403E1,1.639715075E0,4.444044828E-2,3.306308091E-1
1.166545403E1,1.687362552E0,6.704246253E-2,3.196352422E-1
1.167545403E1,1.714393258E0,6.246097013E-2,3.147483170E-1
1.168545403E1,1.708437324E0,1.554652005E-1,3.371976018E-1
1.169545403E1,1.656361103E0,9.071348608E-2,4.065308273E-1
1.170545403E1,1.651626945E0,-2.580905706E-2,4.156937897E-1
1.171545403E1,1.699121714E0,1.252273750E-2,4.547891617E-1
1.172545403E1,1.832901120E0,1.302670091E-1,4.747950137E-1
1.173545403E1,1.988671780E0,2.460259795E-1,4.836525619E-1
1.174545403E1,2.024254799E0,2.588541508E-1,4.531092942E-1
1.175545403E1,1.897042036E0,2.070833147E-1,4.653266072E-1
1.176545403E1,1.784184694E0,2.018909603E-1,5.082398653E-1
1.177545403E1,1.679726720E0,2.102903575E-1,5.450445414E-1
1.178545403E1,1.588249683E0,1.553124934E-1,5.534439087E-1
1.179545403E1,1.582141042E0,4.367686436E-2,5.699372888E-1
1.180545403E1,1.625817895E0,-1.359175146E-2,5.842925906E-1
1.181545403E1,1.660637140E0,-6.475171447E-2,5.862779021E-1
1.182545403E1,1.629941225E0,-6.383541971E-2,5.742133260E-1
1.183545403E1,1.619098306E0,-7.880161703E-2,6.229298115E-1
1.184545403E1,1.592220306E0,-8.200865984E-2,6.864598393E-1
1.185545403E1,1.522581577E0,-1.221730486E-1,7.205155492E-1
1.186545403E1,1.489289522E0,-2.119702399E-1,6.994407177E-1
1.187545403E1,1.485777020E0,-2.377792895E-1,7.066183686E-1
1.188545403E1,1.556026459E0,-2.612976134E-1,6.769914031E-1
1.189545403E1,1.588096976E0,-2.716823220E-1,6.220135093E-1
1.190545403E1,1.578170419E0,-2.701551616E-1,5.487096906E-1
1.191545403E1,1.542129278E0,-3.466660380E-1,5.581781268E-1
1.192545403E1,1.527315855E0,-4.505131245E-1,4.807509482E-1
1.193545403E1,1.515251279E0,-4.809036553E-1,4.109596014E-1
1.194545403E1,1.479821086E0,-4.992296100E-1,3.327688277E-1
1.195545403E1,1.411404133E0,-4.117231667E-1,3.138320148E-1
1.196545403E1,1.309542418E0,-3.112358451E-1,3.341432810E-1
1.197545403E1,1.280831695E0,-2.597704530E-1,2.977968156E-1
1.198545403E1,1.296408772E0,-2.347249687E-1,2.270891517E-1
1.199545403E1,1.291063666E0,-2.005165219E-1,2.357939780E-1
1.200545403E1,1.268919826E0,-1.934915632E-1,2.664899528E-1
1.201545403E1,1.250593901E0,-1.999056488E-1,2.811507285E-1
1.202545403E1,1.219439745E0,-2.538145185E-1,4.176791012E-1
1.203545403E1,1.180344343E0,-2.829833329E-1,3.075706363E-1
1.204545403E1,1.131322384E0,-1.742493063E-1,2.606867552E-1
1.205545403E1,1.047175765E0,-1.200350225E-1,2.696970105E-1
1.206545403E1,9.644035101E-1,-7.437284291E-2,2.846632004E-1
1.207545403E1,8.321511745E-1,-1.113301888E-1,2.713768780E-1
1.208545403E1,7.226535678E-1,-2.005165219E-1,2.185370475E-1
1.209545403E1,5.787948370E-1,-1.798998117E-1,1.895209402E-1
1.210545403E1,4.211915731E-1,-1.482875347E-1,1.302670091E-1
1.211545403E1,2.646573782E-1,-9.437867999E-2,4.169155285E-2
1.212545403E1,1.568396538E-1,-2.241875380E-1,3.619376570E-2
1.213545403E1,1.206458881E-1,-5.140430927E-1,6.765332818E-2
1.214545403E1,1.062905490E-1,-7.803803682E-1,7.116580009E-2
1.215545403E1,4.673119262E-2,-8.275696635E-1,7.223481685E-2
1.216545403E1,-5.406157300E-2,-7.133378983E-1,5.711590126E-2
1.217545403E1,-1.185078546E-1,-5.374087095E-1,2.535090782E-2
1.218545403E1,-1.666134894E-1,-4.112650156E-1,-3.497203439E-2
1.219545403E1,-1.908953935E-1,-3.278819323E-1,-8.460483700E-2
1.220545403E1,-1.873829067E-1,-3.119994104E-1,-7.467827946E-2
1.221545403E1,-1.412625909E-1,-3.765984178E-1,-3.848451003E-2
1.222545403E1,-6.658431143E-2,-4.557054639E-1,-2.443460980E-3
1.223545403E1,8.857546374E-3,-5.115996599E-1,5.207626149E-2
1.224545403E1,6.459899992E-2,-5.540547967E-1,7.498370856E-2
1.225545403E1,9.575312585E-2,-6.013968587E-1,5.268712714E-2
1.226545403E1,7.925976813E-2,-6.626361012E-1,2.183843218E-2
1.227545403E1,5.864306539E-2,-6.846272349E-1,-4.169155285E-2
1.228545403E1,7.192938030E-2,-6.733261943E-1,-4.902193695E-2
1.229545403E1,1.350012124E-1,-6.015495658E-1,-5.115996301E-2
1.230545403E1,2.148718536E-1,-4.853324294E-1,-6.414084882E-2
1.231545403E1,2.267837226E-1,-3.417791128E-1,-7.315111160E-2
1.232545403E1,1.753183305E-1,-2.467895597E-1,-6.643159688E-2
1.233545403E1,1.266018152E-1,-1.663080603E-1,-6.597344577E-2
1.234545403E1,8.888089657E-2,-7.849618047E-2,-6.902777404E-2
1.235545403E1,7.605272532E-2,-3.313944116E-2,-8.582656831E-2
1.236545403E1,7.330382615E-2,-9.926560335E-3,-8.567385375E-2
1.237545403E1,6.582073122E-2,2.290744567E-3,-8.078692853E-2
1.238545403E1,5.192354694E-2,4.505131021E-2,-7.803803682E-2
1.239545403E1,3.268129006E-2,1.098030284E-1,-7.528914511E-2
1.240545403E1,2.107485011E-2,1.672243625E-1,-7.742717117E-2
1.241545403E1,-8.399397135E-3,1.681406647E-1,-8.460483700E-2
1.242545403E1,-2.092213556E-2,1.913535446E-1,-1.015563458E-1
1.243545403E1,-1.023199316E-2,2.148718536E-1,-1.186605766E-1
1.244545403E1,7.177666761E-3,1.966986060E-1,-1.235474944E-1
1.245545403E1,1.756237634E-2,1.527163088E-1,-1.238529310E-1
1.246545403E1,1.572977938E-2,9.010262042E-2,-1.168279797E-1
1.247545403E1,1.145372353E-2,3.985895589E-2,-1.159116775E-1
1.248545403E1,7.941247895E-3,2.015855350E-2,-1.172861308E-1
1.249545403E1,-1.786780916E-2,1.496619824E-2,-1.183551401E-1
1.250545403E1,-4.382958263E-2,3.436116874E-2,-1.255328059E-1
1.251545403E1,-6.505715102E-2,7.101308554E-2,-1.290452778E-1
1.252545403E1,-6.918048859E-2,1.101084575E-1,-1.215621829E-1
1.253545403E1,-5.146539584E-2,1.739438772E-1,-1.114829108E-1
1.254545403E1,-3.207042441E-2,2.046398520E-1,-8.200865984E-2
1.255545403E1,-9.926560335E-3,2.023491114E-1,-6.490442902E-2
1.256545403E1,3.665191587E-3,1.866193265E-1,-6.872233748E-2
1.257545403E1,2.519819140E-2,2.396118939E-1,-8.185594529E-2
1.258545403E1,4.566217586E-2,2.779437006E-1,-8.903361112E-2
1.259545403E1,2.993239649E-2,2.556470931E-1,-8.185594529E-2
1.260545403E1,-6.414085161E-3,2.110539377E-1,-6.856962293E-2
1.261545403E1,-4.398229718E-2,1.640173197E-1,-6.139195710E-2
1.262545403E1,-7.620543987E-2,8.139779419E-2,-5.207626149E-2
1.263545403E1,-9.361509979E-2,-9.468411095E-3,-4.642575979E-2
1.264545403E1,-1.032362282E-1,-3.176499158E-2,-4.398229718E-2
1.265545403E1,-9.483683109E-2,-1.695151068E-2,-4.031710699E-2
1.266545403E1,-7.773260027E-2,-3.207042580E-3,-5.497787148E-2
1.267545403E1,-5.574145541E-2,8.093964309E-3,-5.864306539E-2
1.268545403E1,-4.001167417E-2,2.428189293E-2,-5.604688451E-2
1.269545403E1,-4.398229718E-2,5.482515693E-2,-5.833763257E-2
1.270545403E1,-5.925392732E-2,1.087340117E-1,-7.513642311E-2
1.271545403E1,-7.101308554E-2,1.624901593E-1,-7.727445662E-2
1.272545403E1,-1.030835137E-1,1.792889535E-1,-6.368270516E-2
1.273545403E1,-1.351539344E-1,1.948660165E-1,-5.375614017E-2
1.274545403E1,-1.571450830E-1,1.846340150E-1,-2.321287990E-2
1.275545403E1,-1.710422635E-1,1.156062484E-1,8.093964309E-3
1.276545403E1,-1.754710376E-1,6.276640296E-2,1.756237634E-2
1.277545403E1,-1.542434692E-1,3.970624134E-2,2.229658142E-2
1.278545403E1,-1.194241568E-1,-2.901609987E-3,2.565634064E-2
1.279545403E1,-7.345654815E-2,-5.757404864E-2,3.268129006E-2
1.280545403E1,1.679879427E-2,1.113301888E-1,3.711006418E-2
1.281545403E1,9.789115191E-2,2.287690341E-1,3.145955876E-2
1.282545403E1,3.405573592E-2,-1.221730490E-3,3.405573592E-2
1.283545403E1,-3.344487399E-2,-1.148426682E-1,4.077525437E-2
1.284545403E1,-5.100724846E-2,-8.429940045E-2,4.108068720E-2
1.285545403E1,-5.268712714E-2,-4.138612002E-2,3.268129006E-2
1.286545403E1,-4.566217586E-2,-5.650503561E-3,2.672535367E-2
1.287545403E1,-2.519819140E-2,2.153299935E-2,1.588249579E-2
1.288545403E1,-1.282817032E-2,1.069014147E-2,1.099557430E-2
1.289545403E1,-1.206458826E-2,-5.787948146E-2,1.985311974E-3
1.290545403E1,-9.468411095E-3,-7.376197726E-2,-2.901609987E-3
1.291545403E1,-5.955935922E-3,-5.406157300E-2,-7.788531948E-3
1.292545403E1,3.833179548E-2,1.695151031E-1,-7.788531948E-3
1.293545403E1,3.909537569E-2,9.468411654E-2,-4.581489135E-3
1.294545403E1,6.108652335E-3,-2.825251780E-2,5.803219974E-3
1.295545403E1,-1.603521220E-2,-2.122756653E-2,1.695151068E-2
1.296545403E1,-2.015855350E-2,8.093964309E-3,1.588249579E-2
1.297545403E1,-1.466076635E-2,7.315111160E-2,1.496619824E-2
1.298545403E1,-1.130100712E-2,1.075122803E-1,1.023199316E-2
1.299545403E1,-2.596177394E-3,8.933904022E-2,5.192354787E-3
1.300545403E1,3.970623948E-3,5.390885845E-2,-2.290744567E-3
1.301545403E1,8.552113548E-3,7.849618047E-2,-7.024950348E-3
1.302545403E1,1.466076635E-2,8.827003092E-2,-8.246680722E-3
1.303545403E1,1.542434748E-2,1.262963861E-1,-1.282817032E-2
1.304545403E1,4.550946131E-2,1.843285859E-1,-7.788531948E-3
1.305545403E1,1.924225502E-2,6.261368748E-3,-7.483099122E-3
1.306545403E1,-2.840523422E-2,-1.389718503E-1,-8.093964309E-3
1.307545403E1,-4.031710699E-2,-1.722639948E-1,-9.162978968E-4
1.308545403E1,-2.825251780E-2,-1.501201391E-1,3.970623948E-3
1.309545403E1,-2.107485011E-2,-1.255328059E-1,7.788531948E-3
1.310545403E1,-1.420261711E-2,-8.002334833E-2,1.053742506E-2
1.311545403E1,-1.114829071E-2,-3.222314268E-2,1.191187184E-2
1.312545403E1,-1.359175146E-2,-2.367102914E-2,9.621127509E-3
1.313545403E1,-1.359175146E-2,-2.122756653E-2,9.621127509E-3
1.314545403E1,-1.237002108E-2,-2.122756653E-2,1.084285788E-2
1.315545403E1,-5.039638374E-3,-1.985312067E-2,9.621127509E-3
1.316545403E1,-2.748893574E-3,-1.496619824E-2,5.955935922E-3
1.317545403E1,-7.635815535E-3,-1.374446787E-2,4.734205548E-3
1.318545403E1,-1.007927675E-2,-1.740965992E-2,2.290744567E-3
1.319545403E1,-9.926560335E-3,-2.107485011E-2,2.290744567E-3
1.320545403E1,-8.857546374E-3,-1.130100712E-2,3.512475174E-3
1.321545403E1,-6.414085161E-3,-7.635815535E-3,3.512475174E-3
1.322545403E1,-5.192354787E-3,-1.374446787E-2,2.290744567E-3
1.323545403E1,-2.901609987E-3,3.512475174E-3,-1.527163113E-4
1.324545403E1,4.581489484E-4,3.909537569E-2,1.374446787E-3
1.325545403E1,6.414085161E-3,5.268712714E-2,-1.069014193E-3
1.326545403E1,1.114829071E-2,6.979135424E-2,-3.359758761E-3
1.327545403E1,1.343903504E-2,8.704829961E-2,-9.162978968E-4
1.328545403E1,8.552113548E-3,8.582656831E-2,-9.162978968E-4
1.329545403E1,3.665191587E-3,7.590000331E-2,-3.359758761E-3
1.330545403E1,1.374446787E-3,6.246097013E-2,-5.955935922E-3
1.331545403E1,2.748893574E-3,4.276056588E-2,-4.734205548E-3
1.332545403E1,4.123340361E-3,3.176499158E-2,-7.330383174E-3
1.333545403E1,9.162978269E-3,3.069597855E-2,-9.773843922E-3
1.334545403E1,1.267545391E-2,3.313944116E-2,-1.221730467E-2
1.335545403E1,1.023199316E-2,3.802636266E-2,-1.206458826E-2
1.336545403E1,9.010262787E-3,3.924809024E-2,-1.817324013E-2
1.337545403E1,1.756237634E-2,3.695734590E-2,-2.687807009E-2
1.338545403E1,2.244929783E-2,4.306599870E-2,-1.939497143E-2
1.339545403E1,1.756237634E-2,4.169155285E-2,-2.290744567E-3
1.340545403E1,-9.162978968E-4,4.764748737E-2,7.483099122E-3
1.341545403E1,-5.955935922E-3,5.726861581E-2,1.847867295E-2
1.342545403E1,-1.542434748E-2,2.535090782E-2,2.321287990E-2
1.343545403E1,-2.275473066E-2,2.275473066E-2,1.954768784E-2
1.344545403E1,-1.786780916E-2,2.901609987E-2,1.832595654E-2
1.345545403E1,-6.872233935E-3,2.901609987E-2,1.710422710E-2
1.346545403E1,-4.276056774E-3,2.550362423E-2,1.588249579E-2
1.347545403E1,-6.108652451E-4,2.061670274E-2,1.343903504E-2
1.348545403E1,1.832595794E-3,2.672535367E-2,1.099557430E-2
1.349545403E1,6.108652451E-4,2.183843218E-2,1.221730467E-2
1.350545403E1,-4.276056774E-3,1.450804994E-2,1.221730467E-2
1.351545403E1,-7.941247895E-3,1.679879427E-2,9.773843922E-3
1.352545403E1,-1.160643995E-2,1.557706390E-2,7.330383174E-3
1.353545403E1,-1.145372353E-2,8.246680722E-3,6.108652335E-3
1.354545403E1,-1.267545391E-2,7.024950348E-3,2.443460980E-3
1.355545403E1,-9.162978269E-3,2.183843218E-2,-1.221730490E-3
1.356545403E1,-6.719517522E-3,1.695151068E-2,-1.221730490E-3
1.357545403E1,-7.941247895E-3,2.061670274E-2,-6.108652335E-3
1.358545403E1,-6.719517522E-3,1.450804994E-2,-8.552113548E-3
1.359545403E1,-4.123340361E-3,7.177666761E-3,-1.099557430E-2
1.360545403E1,-5.345070735E-3,9.621127509E-3,-1.099557430E-2
1.361545403E1,-5.345070735E-3,8.399397135E-3,-1.099557430E-2
1.362545403E1,-7.788531948E-3,7.177666761E-3,-9.773843922E-3
1.363545403E1,-7.788531948E-3,-1.527163113E-4,-6.261368748E-3
1.364545403E1,-7.635815535E-3,-8.857546374E-3,-5.039638374E-3
1.365545403E1,-5.192354787E-3,-7.483099122E-3,-6.261368748E-3
1.366545403E1,-1.527163084E-3,-5.039638374E-3,-5.039638374E-3
1.367545403E1,-1.679879380E-3,-1.527163113E-4,-6.261368748E-3
1.368545403E1,-1.832595794E-3,1.450804994E-2,-7.330383174E-3
1.369545403E1,2.901609987E-3,3.054326214E-2,-7.330383174E-3
1.370545403E1,1.160643995E-2,2.565634064E-2,-3.665191587E-3
1.371545403E1,1.527163107E-2,2.580905706E-2,-2.443460980E-3
1.372545403E1,1.908953860E-2,1.847867295E-2,-2.443460980E-3
1.373545403E1,1.786780916E-2,7.330383174E-3,-3.817907767E-3
1.374545403E1,2.046398632E-2,0.000000000E0,-2.596177394E-3
1.375545403E1,1.924225502E-2,1.221730490E-3,-3.817907767E-3
1.376545403E1,1.924225502E-2,1.374446787E-3,-7.483099122E-3
1.377545403E1,2.275473066E-2,1.114829071E-2,-6.261368748E-3
1.378545403E1,2.397646010E-2,1.114829071E-2,-7.483099122E-3
1.379545403E1,1.664607786E-2,1.725694351E-2,-8.552113548E-3
1.380545403E1,1.298088674E-2,1.847867295E-2,-7.330383174E-3
1.381545403E1,1.175915636E-2,1.343903504E-2,-7.330383174E-3
1.382545403E1,1.053742506E-2,7.330383174E-3,-7.483099122E-3
1.383545403E1,1.069014147E-2,1.221730490E-3,-6.261368748E-3
1.384545403E1,1.191187184E-2,-6.108652335E-3,-6.261368748E-3
1.385545403E1,1.206458826E-2,-1.466076635E-2,-3.817907767E-3
1.386545403E1,9.621127509E-3,-1.970040426E-2,-3.970623948E-3
1.387545403E1,7.177666761E-3,-1.847867295E-2,-3.817907767E-3
1.388545403E1,-1.527163113E-4,-2.474004216E-2,-1.527163084E-3
1.389545403E1,-6.261368748E-3,-2.596177347E-2,9.162978968E-4
1.390545403E1,-9.926560335E-3,-2.596177347E-2,9.162978968E-4
1.391545403E1,-8.704829961E-3,-1.863138936E-2,2.290744567E-3
1.392545403E1,-5.192354787E-3,-7.635815535E-3,4.734205548E-3
1.393545403E1,-2.901609987E-3,3.512475174E-3,3.512475174E-3
1.394545403E1,-4.123340361E-3,7.177666761E-3,4.886921961E-3
1.395545403E1,-2.901609987E-3,3.512475174E-3,4.734205548E-3
1.396545403E1,-4.123340361E-3,1.084285788E-2,3.665191587E-3
1.397545403E1,-4.581489484E-4,1.084285788E-2,4.886921961E-3
1.398545403E1,3.054326167E-3,1.817324013E-2,3.665191587E-3
1.399545403E1,5.497787148E-3,1.832595654E-2,4.886921961E-3
1.400545403E1,5.650503561E-3,1.588249579E-2,2.443460980E-3
1.401545403E1,1.985311974E-3,7.177666761E-3,1.069014193E-3
1.402545403E1,-1.679879380E-3,3.512475174E-3,-1.374446787E-3
1.403545403E1,-1.679879380E-3,4.734205548E-3,-2.596177394E-3
1.404545403E1,-4.123340361E-3,-1.374446787E-3,-2.596177394E-3
1.405545403E1,-6.414085161E-3,-6.414085161E-3,-3.817907767E-3
1.406545403E1,-5.192354787E-3,-1.618792862E-2,-2.596177394E-3
1.407545403E1,-1.374446787E-3,-1.847867295E-2,-3.817907767E-3
1.408545403E1,1.069014193E-3,-2.703078650E-2,-3.970623948E-3
1.409545403E1,-1.527163113E-4,-2.718350291E-2,-3.970623948E-3
1.410545403E1,-3.817907767E-3,-2.718350291E-2,-1.527163084E-3
1.411545403E1,-2.596177394E-3,-2.351831272E-2,-1.527163084E-3
1.412545403E1,-2.596177394E-3,-1.863138936E-2,-1.527163113E-4
1.413545403E1,-3.970623948E-3,-1.252273750E-2,1.069014193E-3
1.414545403E1,-7.635815535E-3,-1.496619824E-2,3.512475174E-3
1.415545403E1,-8.857546374E-3,-7.635815535E-3,5.955935922E-3
1.416545403E1,-1.023199316E-2,-1.527163084E-3,5.955935922E-3
1.417545403E1,-6.566801574E-3,4.581489135E-3,8.399397135E-3
1.418545403E1,-5.345070735E-3,2.138028387E-3,7.177666761E-3
1.419545403E1,-6.414085161E-3,-5.192354787E-3,8.399397135E-3
1.420545403E1,-7.635815535E-3,-7.635815535E-3,9.621127509E-3
1.421545403E1,-3.970623948E-3,-3.970623948E-3,9.621127509E-3
1.422545403E1,-3.970623948E-3,-8.857546374E-3,1.084285788E-2
1.423545403E1,-2.596177394E-3,-2.718350291E-2,9.468411095E-3
1.424545403E1,-1.221730490E-3,-4.199698567E-2,1.069014147E-2
1.425545403E1,-4.734205548E-3,-5.543602258E-2,1.053742506E-2
1.426545403E1,1.527163113E-4,-4.550946131E-2,1.069014147E-2
1.427545403E1,3.665191587E-3,-3.329215571E-2,8.246680722E-3
1.428545403E1,-1.374446787E-3,-2.840523422E-2,9.468411095E-3
1.429545403E1,-6.261368748E-3,-1.863138936E-2,8.399397135E-3
1.430545403E1,-3.817907767E-3,-1.985312067E-2,8.399397135E-3
1.431545403E1,-7.635815535E-3,-1.252273750E-2,8.399397135E-3
1.432545403E1,-6.414085161E-3,-1.496619824E-2,8.399397135E-3
1.433545403E1,-5.192354787E-3,-7.635815535E-3,8.399397135E-3
1.434545403E1,-1.679879380E-3,-1.527163113E-4,5.955935922E-3
1.435545403E1,-1.679879380E-3,8.399397135E-3,4.886921961E-3
1.436545403E1,-4.581489484E-4,3.512475174E-3,3.512475174E-3
1.437545403E1,2.138028387E-3,-2.596177394E-3,3.512475174E-3
1.438545403E1,-1.679879380E-3,-1.527163113E-4,1.069014193E-3
1.439545403E1,1.985311974E-3,1.328631863E-2,-2.443460980E-3
1.440545403E1,4.276056774E-3,1.954768784E-2,-4.886921961E-3
1.441545403E1,5.497787148E-3,1.710422710E-2,-4.886921961E-3
1.442545403E1,3.207042580E-3,1.343903504E-2,-7.330383174E-3
1.443545403E1,3.054326167E-3,1.832595654E-2,-8.552113548E-3
1.444545403E1,4.276056774E-3,1.588249579E-2,-9.773843922E-3
1.445545403E1,5.650503561E-3,1.466076635E-2,-1.221730467E-2
1.446545403E1,6.719517522E-3,1.710422710E-2,-1.221730467E-2
1.447545403E1,9.162978269E-3,1.832595654E-2,-1.221730467E-2
1.448545403E1,7.941247895E-3,2.321287990E-2,-1.221730467E-2
1.449545403E1,9.162978269E-3,3.069597855E-2,-1.221730467E-2
1.450545403E1,1.145372353E-2,3.558290005E-2,-1.221730467E-2
1.451545403E1,1.038470957E-2,2.947424725E-2,-1.221730467E-2
1.452545403E1,8.093964309E-3,1.588249579E-2,-8.552113548E-3
1.453545403E1,1.985311974E-3,4.734205548E-3,-6.261368748E-3
1.454545403E1,1.985311974E-3,4.734205548E-3,-6.261368748E-3
1.455545403E1,-6.414085161E-3,-3.970623948E-3,-1.374446787E-3
1.456545403E1,-6.566801574E-3,-2.748893574E-3,1.069014193E-3
1.457545403E1,-5.345070735E-3,-1.527163084E-3,3.512475174E-3
1.458545403E1,-5.497787148E-3,1.328631863E-2,4.886921961E-3
1.459545403E1,-1.832595794E-3,1.695151068E-2,7.330383174E-3
1.460545403E1,-2.901609987E-3,9.468411095E-3,1.099557430E-2
1.461545403E1,-4.276056774E-3,2.306016348E-2,1.221730467E-2
1.462545403E1,-3.054326167E-3,1.695151068E-2,1.221730467E-2
1.463545403E1,-7.788531948E-3,7.024950348E-3,1.206458826E-2
1.464545403E1,-1.145372353E-2,9.162978968E-4,1.084285788E-2
1.465545403E1,-1.145372353E-2,3.359758761E-3,8.399397135E-3
1.466545403E1,-1.038470957E-2,1.191187184E-2,8.552113548E-3
1.467545403E1,-7.941247895E-3,1.191187184E-2,8.552113548E-3
1.468545403E1,-5.497787148E-3,1.191187184E-2,8.552113548E-3
1.469545403E1,-5.497787148E-3,1.328631863E-2,6.108652335E-3
1.470545403E1,-7.788531948E-3,4.581489135E-3,3.512475174E-3
1.471545403E1,-9.010262787E-3,-3.054326226E-4,2.290744567E-3
1.472545403E1,-7.788531948E-3,2.138028387E-3,-1.527163113E-4
1.473545403E1,-6.566801574E-3,2.290744567E-3,-3.817907767E-3
1.474545403E1,-9.010262787E-3,-2.748893574E-3,-5.039638374E-3
1.475545403E1,-1.023199316E-2,-2.748893574E-3,-6.261368748E-3
1.476545403E1,-5.345070735E-3,3.512475174E-3,-9.926560335E-3
1.477545403E1,-4.123340361E-3,3.512475174E-3,-9.926560335E-3
1.478545403E1,-4.581489484E-4,8.399397135E-3,-8.552113548E-3
1.479545403E1,7.635815418E-4,1.084285788E-2,-7.330383174E-3
1.480545403E1,6.108652451E-4,1.710422710E-2,-6.108652335E-3
1.481545403E1,3.054326167E-3,1.710422710E-2,-4.886921961E-3
1.482545403E1,7.635815418E-4,1.069014193E-3,-2.596177394E-3
1.483545403E1,-3.054326226E-4,-3.817907767E-3,-3.817907767E-3
1.484545403E1,-2.748893574E-3,-1.252273750E-2,-1.374446787E-3
1.485545403E1,9.162978968E-4,-9.926560335E-3,-1.374446787E-3
1.486545403E1,3.512475174E-3,-1.481348183E-2,-1.374446787E-3
1.487545403E1,4.581489135E-3,-7.483099122E-3,-1.527163113E-4
1.488545403E1,2.138028387E-3,-1.374446787E-3,-1.527163113E-4
1.489545403E1,5.650503561E-3,1.221730467E-2,1.221730490E-3
1.490545403E1,1.985311974E-3,9.621127509E-3,1.221730490E-3
1.491545403E1,7.635815418E-4,5.955935922E-3,1.069014193E-3
1.492545403E1,-1.679879380E-3,5.955935922E-3,1.069014193E-3
1.493545403E1,-3.054326226E-4,-1.374446787E-3,-1.527163113E-4
1.494545403E1,-3.054326226E-4,-7.483099122E-3,-1.374446787E-3
1.495545403E1,-3.054326226E-4,-2.596177394E-3,-5.039638374E-3
1.496545403E1,-4.581489484E-4,4.734205548E-3,-3.817907767E-3
1.497545403E1,-1.679879380E-3,-1.374446787E-3,-3.817907767E-3
1.498545403E1,-6.414085161E-3,-7.635815535E-3,-5.039638374E-3
1.499545403E1,-1.023199316E-2,-2.748893574E-3,-6.261368748E-3
1.500545403E1,-1.145372353E-2,-3.970623948E-3,-6.261368748E-3
1.501545403E1,-1.130100712E-2,-1.007927675E-2,-8.704829961E-3
1.502545403E1,-1.007927675E-2,-6.414085161E-3,-7.483099122E-3
1.503545403E1,-8.857546374E-3,-8.857546374E-3,-5.039638374E-3
1.504545403E1,-8.857546374E-3,-1.740965992E-2,-3.817907767E-3
1.505545403E1,-8.857546374E-3,-1.740965992E-2,-2.596177394E-3
1.506545403E1,-5.192354787E-3,-1.374446787E-2,-2.596177394E-3
1.507545403E1,-1.527163084E-3,-1.481348183E-2,-1.527163113E-4
1.508545403E1,-1.527163084E-3,-3.817907767E-3,-1.527163113E-4
1.509545403E1,-1.527163084E-3,-8.704829961E-3,2.290744567E-3
1.510545403E1,-3.970623948E-3,-7.635815535E-3,2.290744567E-3
1.511545403E1,-3.054326226E-4,-2.596177394E-3,3.512475174E-3
1.512545403E1,-3.054326226E-4,-2.596177394E-3,4.734205548E-3
1.513545403E1,1.985311974E-3,4.734205548E-3,5.955935922E-3
1.514545403E1,9.162978968E-4,-1.527163113E-4,7.177666761E-3
1.515545403E1,7.635815418E-4,2.290744567E-3,5.955935922E-3
1.516545403E1,3.207042580E-3,7.177666761E-3,5.955935922E-3
1.517545403E1,7.635815418E-4,1.084285788E-2,6.108652335E-3
1.518545403E1,-4.581489484E-4,4.734205548E-3,5.955935922E-3
1.519545403E1,-3.054326226E-4,-3.817907767E-3,5.955935922E-3
1.520545403E1,9.162978968E-4,-1.374446787E-2,4.734205548E-3
1.521545403E1,3.512475174E-3,-2.107485011E-2,4.581489135E-3
1.522545403E1,1.069014193E-3,-2.474004216E-2,2.138028387E-3
1.523545403E1,0.000000000E0,-3.573561832E-2,2.138028387E-3
1.524545403E1,-1.221730490E-3,-3.084869497E-2,2.138028387E-3
1.525545403E1,-2.596177394E-3,-2.351831272E-2,9.162978968E-4
1.526545403E1,-9.926560335E-3,-2.718350291E-2,-1.527163084E-3
1.527545403E1,-1.007927675E-2,-1.863138936E-2,-1.374446787E-3
1.528545403E1,-7.941247895E-3,1.328631863E-2,-3.665191587E-3
1.529545403E1,4.581489484E-4,3.298672289E-2,-1.221730490E-3
1.530545403E1,1.527163084E-3,5.497787148E-2,1.374446787E-3
1.531545403E1,-3.054326167E-3,1.328631863E-2,4.886921961E-3
1.532545403E1,-2.748893574E-3,-1.374446787E-2,3.512475174E-3
1.533545403E1,-3.817907767E-3,-2.351831272E-2,3.359758761E-3
1.534545403E1,3.512475174E-3,-1.481348183E-2,4.734205548E-3
1.535545403E1,5.803219974E-3,-9.926560335E-3,3.512475174E-3
1.536545403E1,-3.054326226E-4,-8.704829961E-3,3.512475174E-3
1.537545403E1,4.428773187E-3,5.955935922E-3,3.512475174E-3
1.538545403E1,5.650503561E-3,4.734205548E-3,2.290744567E-3
1.539545403E1,5.650503561E-3,1.099557430E-2,1.221730490E-3
1.540545403E1,1.160643995E-2,2.321287990E-2,-0.000000000E0
1.541545403E1,1.023199316E-2,3.313944116E-2,-2.443460980E-3
1.542545403E1,1.023199316E-2,4.169155285E-2,-2.290744567E-3
1.543545403E1,1.023199316E-2,3.313944116E-2,-4.886921961E-3
1.544545403E1,6.872233935E-3,1.221730467E-2,-4.886921961E-3
1.545545403E1,4.428773187E-3,1.221730490E-3,-7.483099122E-3
1.546545403E1,1.985311974E-3,3.512475174E-3,-7.483099122E-3
1.547545403E1,-2.748893574E-3,-8.704829961E-3,-9.926560335E-3
1.548545403E1,-5.192354787E-3,-1.114829071E-2,-8.704829961E-3
1.549545403E1,-3.970623948E-3,-1.114829071E-2,-7.483099122E-3
1.550545403E1,-4.123340361E-3,1.069014193E-3,-7.483099122E-3
1.551545403E1,-4.276056774E-3,1.328631863E-2,-7.330383174E-3
1.552545403E1,-5.497787148E-3,1.328631863E-2,-3.665191587E-3
1.553545403E1,-5.345070735E-3,1.084285788E-2,-2.443460980E-3
1.554545403E1,-1.832595794E-3,1.450804994E-2,-2.443460980E-3
1.555545403E1,3.207042580E-3,1.328631863E-2,-1.221730490E-3
1.556545403E1,-4.581489484E-4,8.399397135E-3,-1.221730490E-3
1.557545403E1,7.635815418E-4,1.206458826E-2,-0.000000000E0
1.558545403E1,-1.832595794E-3,1.572977938E-2,2.443460980E-3
1.559545403E1,1.985311974E-3,1.084285788E-2,3.665191587E-3
1.560545403E1,-4.581489484E-4,9.621127509E-3,4.886921961E-3
1.561545403E1,7.635815418E-4,1.328631863E-2,6.108652335E-3
1.562545403E1,6.108652451E-4,1.572977938E-2,6.108652335E-3
1.563545403E1,1.832595794E-3,1.695151068E-2,7.330383174E-3
1.564545403E1,1.985311974E-3,9.621127509E-3,9.621127509E-3
1.565545403E1,-4.612032697E-2,3.359758854E-2,7.483099122E-3
1.566545403E1,-2.886338346E-2,1.664607786E-2,9.773843922E-3
1.567545403E1,-1.145372353E-2,7.024950348E-3,8.552113548E-3
1.568545403E1,-4.276056774E-3,1.450804994E-2,9.773843922E-3
1.569545403E1,-7.635815418E-4,2.916881628E-2,1.099557430E-2
1.570545403E1,1.038470957E-2,2.199114859E-2,8.552113548E-3
1.571545403E1,3.252857551E-2,1.603521220E-2,8.399397135E-3
1.572545403E1,4.505131021E-2,-4.581489135E-3,8.399397135E-3
1.573545403E1,4.535674304E-2,-2.428189293E-2,9.468411095E-3
1.574545403E1,1.114829071E-2,-4.657847434E-2,7.635815418E-4
1.575545403E1,-8.704829961E-3,-1.985312067E-2,1.069014193E-3
1.580081498E1,8.185594529E-2,1.113301888E-1,-3.634648025E-2
1.581081498E1,8.903361112E-2,1.272126883E-1,-3.130684420E-2
1.582081498E1,9.132435173E-2,1.408044398E-1,-2.519819140E-2
1.583081498E1,9.972374886E-2,1.568396538E-1,-2.626720630E-2
1.584081498E1,9.987647086E-2,1.481348276E-1,-2.764165215E-2
1.585081498E1,1.001819000E-1,1.235474944E-1,-1.298088674E-2
1.586081498E1,9.178250283E-2,9.773843735E-2,-1.679879427E-2
1.587081498E1,7.391469181E-2,5.955936015E-2,-1.695151068E-2
1.588081498E1,5.803219974E-2,4.108068720E-2,-1.710422710E-2
1.589081498E1,3.283400834E-2,-9.162978968E-4,-1.725694351E-2
1.590081498E1,1.099557430E-2,-2.825251780E-2,-1.130100712E-2
1.591081498E1,1.374446787E-3,-4.550946131E-2,-2.748893574E-3
1.592081498E1,5.039638374E-3,-4.428773001E-2,3.359758761E-3
1.593081498E1,5.039638374E-3,-4.673119262E-2,9.315694682E-3
1.594081498E1,-2.290744567E-3,-5.299255997E-2,1.298088674E-2
1.595081498E1,-1.313360315E-2,-6.536258012E-2,1.664607786E-2
1.596081498E1,-1.191187184E-2,-6.658431143E-2,1.786780916E-2
1.597081498E1,-9.621127509E-3,-4.932736978E-2,1.679879427E-2
1.598081498E1,-1.603521220E-2,-3.466660157E-2,1.191187184E-2
1.599081498E1,-2.825251780E-2,-2.748893574E-2,8.399397135E-3
1.600081498E1,-3.084869497E-2,-1.893682219E-2,1.069014193E-3
1.601081498E1,-1.756237634E-2,-5.192354787E-3,-5.039638374E-3
1.602081498E1,-1.389718428E-2,-3.970623948E-3,-9.926560335E-3
1.603081498E1,-8.857546374E-3,-1.252273750E-2,-1.237002108E-2
1.604081498E1,-1.527163113E-4,-1.603521220E-2,-1.237002108E-2
1.605081498E1,3.665191587E-3,-2.825251780E-2,-7.635815535E-3
1.606081498E1,6.108652335E-3,-3.680463135E-2,-1.527163084E-3
1.607081498E1,1.359175146E-2,-4.535674304E-2,1.985311974E-3
1.608081498E1,2.199114859E-2,-2.565634064E-2,3.359758761E-3
1.609081498E1,2.672535367E-2,-1.588249579E-2,4.581489135E-3
1.610081498E1,2.916881628E-2,-1.206458826E-2,5.803219974E-3
1.611081498E1,2.290744707E-2,-2.443460980E-3,7.177666761E-3
1.612081498E1,9.468411095E-3,-1.527163113E-4,7.177666761E-3
1.613081498E1,7.635815418E-4,4.734205548E-3,4.734205548E-3
1.614081498E1,-3.054326167E-3,1.450804994E-2,-2.443460980E-3
1.615081498E1,1.832595794E-3,1.954768784E-2,-8.552113548E-3
1.616081498E1,1.298088674E-2,1.481348183E-2,-1.588249579E-2
1.617081498E1,1.924225502E-2,5.039638374E-3,-2.092213556E-2
1.618081498E1,1.572977938E-2,-1.832595654E-2,-1.496619824E-2
1.619081498E1,8.399397135E-3,-2.336559631E-2,-1.252273750E-2
1.620081498E1,-7.483099122E-3,-2.229658142E-2,-8.704829961E-3
1.621081498E1,-3.970623948E-3,-1.481348183E-2,-8.704829961E-3
1.622081498E1,8.246680722E-3,1.221730490E-3,-5.039638374E-3
1.623081498E1,1.282817032E-2,1.970040426E-2,-6.108652335E-3
1.624081498E1,1.649336144E-2,2.703078650E-2,-6.108652335E-3
1.625081498E1,2.138028294E-2,3.573561832E-2,-1.099557430E-2
1.626081498E1,3.100141138E-2,5.421429127E-2,-1.939497143E-2
1.627081498E1,4.566217586E-2,5.818491429E-2,-2.794708498E-2
1.628081498E1,5.299255997E-2,5.329799280E-2,-3.527746722E-2
1.629081498E1,4.948008433E-2,4.352414981E-2,-4.153883830E-2
1.630081498E1,3.726277873E-2,3.115412779E-2,-3.665191308E-2
1.631081498E1,2.641992271E-2,2.107485011E-2,-2.443460934E-2
1.632081498E1,1.038470957E-2,2.092213556E-2,-1.466076635E-2
1.633081498E1,5.497787148E-3,2.687807009E-2,-3.665191587E-3
1.634081498E1,-6.108652451E-4,2.550362423E-2,6.108652335E-3
1.635081498E1,-9.010262787E-3,7.024950348E-3,8.552113548E-3
1.636081498E1,-3.970623948E-3,-3.970623948E-3,7.177666761E-3
1.637081498E1,8.246680722E-3,-1.527163113E-4,2.290744567E-3
1.638081498E1,2.412917651E-2,8.704829961E-3,-1.374446787E-3
1.639081498E1,3.756821156E-2,1.007927675E-2,-3.817907767E-3
1.640081498E1,3.283400834E-2,-1.069014193E-3,1.206458826E-2
1.641081498E1,1.817324013E-2,-1.359175146E-2,1.802052557E-2
1.642081498E1,0.000000000E0,-3.222314268E-2,2.779436857E-2
1.643081498E1,-1.710422710E-2,-3.985895589E-2,3.878994286E-2
1.644081498E1,-3.298672289E-2,-4.489859566E-2,5.222897977E-2
1.645081498E1,-3.313944116E-2,-3.894266114E-2,6.200282276E-2
1.646081498E1,-3.069597855E-2,-2.916881628E-2,6.933320314E-2
1.647081498E1,-2.229658142E-2,-1.069014147E-2,7.070764899E-2
1.648081498E1,-2.626720630E-2,8.857546374E-3,7.925976813E-2
1.649081498E1,-4.230241850E-2,1.970040426E-2,7.696902007E-2
1.650081498E1,-6.185010448E-2,9.773843922E-3,7.208210230E-2
1.651081498E1,-6.933320314E-2,1.710422710E-2,6.475171447E-2
1.652081498E1,-6.414084882E-2,0.000000000E0,5.497787148E-2
1.653081498E1,-3.833179548E-2,-9.468411095E-3,4.627304152E-2
1.654081498E1,-9.010262787E-3,3.207042580E-3,4.138612002E-2
1.655081498E1,1.282817032E-2,2.306016348E-2,4.031710699E-2
1.656081498E1,1.496619824E-2,5.375614017E-2,4.291328415E-2
1.657081498E1,7.483099122E-3,6.582073122E-2,4.291328415E-2
1.658081498E1,2.596177394E-3,6.582073122E-2,4.046982154E-2
1.659081498E1,3.970623948E-3,5.726861581E-2,3.680463135E-2
1.660081498E1,1.634064503E-2,4.398229718E-2,2.687807009E-2
1.661081498E1,3.985895589E-2,1.985312067E-2,1.817324013E-2
1.662081498E1,6.582073122E-2,9.010262787E-3,1.450804994E-2
1.663081498E1,8.674286306E-2,-4.581489484E-4,1.679879427E-2
1.664081498E1,1.004873365E-1,-2.367102914E-2,2.397646010E-2
1.665081498E1,1.007927656E-1,-4.581489414E-2,2.748893574E-2
1.666081498E1,1.143845171E-1,-4.688390717E-2,2.748893574E-2
1.667081498E1,1.291979998E-1,-5.894849449E-2,2.015855350E-2
1.668081498E1,1.180497110E-1,-5.787948146E-2,1.893682219E-2
1.669081498E1,9.498954564E-2,-7.162395120E-2,1.893682219E-2
1.670081498E1,8.399397135E-2,-8.139779419E-2,1.023199316E-2
1.671081498E1,8.918632567E-2,-1.082758680E-1,1.130100712E-2
1.672081498E1,1.088867337E-1,-1.166752651E-1,1.130100712E-2
1.673081498E1,1.371392459E-1,-1.127046347E-1,1.496619824E-2
1.674081498E1,1.592831165E-1,-1.235474944E-1,2.092213556E-2
1.675081498E1,1.554652005E-1,-1.101084575E-1,2.458732575E-2
1.676081498E1,1.456913650E-1,-1.090394482E-1,2.596177347E-2
1.677081498E1,1.423316002E-1,-1.397354305E-1,3.924809024E-2
1.678081498E1,1.511891484E-1,-1.545489132E-1,5.131268129E-2
1.679081498E1,1.742493063E-1,-1.359175146E-1,5.864306539E-2
1.680081498E1,2.183843255E-1,-1.269072592E-1,6.597344577E-2
1.681081498E1,2.871066630E-1,-1.284344196E-1,6.215553731E-2
1.682081498E1,3.975205719E-1,-1.247692257E-1,5.833763257E-2
1.683081498E1,4.954117239E-1,-9.300423414E-2,4.489859566E-2
1.684081498E1,5.542075038E-1,-7.880161703E-2,4.123340547E-2
1.685081498E1,5.593998432E-1,-1.058324054E-1,4.474587739E-2
1.686081498E1,5.270239711E-1,-1.699732542E-1,5.787948146E-2
1.687081498E1,4.624249935E-1,-2.209804952E-1,7.483099401E-2
1.688081498E1,4.086688459E-1,-2.461786866E-1,7.483099401E-2
1.689081498E1,3.988949955E-1,-2.388483137E-1,7.238753140E-2
1.690081498E1,4.205807149E-1,-2.055561543E-1,7.376197726E-2
1.691081498E1,4.570799172E-1,-1.818851233E-1,7.620543987E-2
1.692081498E1,4.877758920E-1,-1.692096740E-1,7.742717117E-2
1.693081498E1,4.896084964E-1,-2.293798923E-1,7.956519723E-2
1.694081498E1,4.743368626E-1,-2.932153046E-1,7.803803682E-2
1.695081498E1,4.398229718E-1,-3.978259861E-1,6.658431143E-2
1.696081498E1,4.111123085E-1,-4.679227769E-1,5.650503561E-2
1.697081498E1,3.894265890E-1,-5.035057068E-1,3.069597855E-2
1.698081498E1,3.857614100E-1,-5.096143484E-1,1.481348183E-2
1.699081498E1,4.068362415E-1,-5.215262175E-1,-3.665191587E-3
1.700081498E1,4.433354437E-1,-4.928155243E-1,-2.183843218E-2
1.701081498E1,4.906775057E-1,-4.566217661E-1,-6.444628537E-2
1.702081498E1,5.422956347E-1,-4.584543705E-1,-6.215553731E-2
1.703081498E1,5.968153477E-1,-4.983133376E-1,-6.856962293E-2
1.704081498E1,6.615670323E-1,-5.807801485E-1,-9.224065393E-2
1.705081498E1,7.163922191E-1,-6.621779203E-1,-1.111774743E-1
1.706081498E1,7.519751191E-1,-7.757988572E-1,-1.117883399E-1
1.707081498E1,7.652614117E-1,-8.602510095E-1,-1.110247597E-1
1.708081498E1,7.577783465E-1,-9.718865752E-1,-1.104138941E-1
1.709081498E1,7.683157325E-1,-1.040456176E0,-1.156062484E-1
1.710081498E1,8.205447197E-1,-9.847147465E-1,-1.227839142E-1
1.711081498E1,8.903360963E-1,-8.562803864E-1,-1.258382350E-1
1.712081498E1,9.259189963E-1,-7.368562222E-1,-1.484402567E-1
1.713081498E1,9.676105380E-1,-6.185010672E-1,-1.893682331E-1
1.714081498E1,1.026558995E0,-5.112941861E-1,-1.876883507E-1
1.715081498E1,1.091005325E0,-4.529565871E-1,-1.814269722E-1
1.716081498E1,1.120632291E0,-3.543018401E-1,-2.151772827E-1
1.717081498E1,1.098488450E0,-2.390010208E-1,-2.620611787E-1
1.718081498E1,1.070541382E0,-1.611157060E-1,-2.371684313E-1
1.719081498E1,1.072068453E0,-6.215553731E-2,-1.560760736E-1
1.720081498E1,1.083827615E0,9.575312585E-2,-9.300423414E-2
1.721081498E1,1.082758665E0,1.983784884E-1,-3.878994286E-2
1.722081498E1,1.060614824E0,2.113593817E-1,1.145372353E-2
1.723081498E1,1.020450354E0,1.765400618E-1,3.451388702E-2
1.724081498E1,9.784533978E-1,9.376781434E-2,4.382958263E-2
1.725081498E1,9.572258592E-1,1.145372353E-2,4.474587739E-2
1.726081498E1,9.500481486E-1,-1.272126883E-1,4.886921868E-2
1.727081498E1,9.502009153E-1,-2.533563673E-1,3.711006418E-2
1.728081498E1,9.708175659E-1,-3.388774991E-1,1.954768784E-2
1.729081498E1,1.019228697E0,-3.947716653E-1,1.924225502E-2
1.730081498E1,1.124602914E0,-3.605632186E-1,3.268129006E-2
1.731081498E1,1.225395679E0,-2.700024247E-1,3.543018550E-2
1.732081498E1,1.258993268E0,-1.924225539E-1,3.573561832E-2
1.733081498E1,1.176373720E0,-1.540907621E-1,3.237585723E-2
1.734081498E1,1.089172721E0,-1.609629989E-1,9.315694682E-3
1.735081498E1,1.019075990E0,-1.469130963E-1,-2.947424725E-2
1.736081498E1,9.783006907E-1,-1.325577646E-1,-4.520402849E-2
1.737081498E1,1.001819015E0,-1.408044398E-1,-5.390885845E-2
1.738081498E1,1.087034702E0,-1.864666194E-1,-5.299255997E-2
1.739081498E1,1.249066710E0,-3.061962128E-1,-2.825251780E-2
1.740081498E1,1.383915186E0,-3.895792961E-1,4.062253982E-2
1.741081498E1,1.401935697E0,-3.494149148E-1,1.311833113E-1
1.742081498E1,1.368338108E0,-3.023782969E-1,1.948660165E-1
1.743081498E1,1.344208956E0,-2.306016237E-1,2.344195396E-1
1.744081498E1,1.303433776E0,-9.498954564E-2,2.437352389E-1
1.745081498E1,1.275333881E0,7.941247895E-3,2.040289938E-1
1.746081498E1,1.292438149E0,8.399397135E-3,1.673770845E-1
1.747081498E1,1.348026872E0,-1.802052557E-2,1.733330190E-1
1.748081498E1,1.404379249E0,-4.581489484E-4,2.122756690E-1
1.749081498E1,1.414763927E0,-4.474587739E-2,2.596177161E-1
1.750081498E1,1.444849014E0,-1.142318025E-1,2.556470931E-1
1.751081498E1,1.486693263E0,-1.139263660E-1,2.652682364E-1
1.752081498E1,1.515862107E0,-8.185594529E-2,2.898555696E-1
1.753081498E1,1.526857734E0,-7.925976813E-2,2.922990322E-1
1.754081498E1,1.534035325E0,-7.177666575E-2,2.727513313E-1
1.755081498E1,1.498452425E0,-6.856962293E-2,2.863430977E-1
1.756081498E1,1.479057431E0,-9.224065393E-2,3.155119121E-1
1.757081498E1,1.440267563E0,-1.307251602E-1,3.446807265E-1
1.758081498E1,1.417207360E0,-1.592831165E-1,3.530801237E-1
1.759081498E1,1.429730058E0,-1.835650057E-1,3.346014321E-1
1.760081498E1,1.429577351E0,-1.675297916E-1,3.200933933E-1
1.761081498E1,1.403004766E0,-9.926560521E-2,3.203988075E-1
1.762081498E1,1.321148753E0,-2.168571576E-2,3.307835162E-1
1.763081498E1,1.297783256E0,-2.321287990E-2,3.283400834E-1
1.764081498E1,1.375668526E0,-6.291911751E-2,3.500257730E-1
1.765081498E1,1.446070790E0,-9.896016866E-2,3.680463135E-1
1.766081498E1,1.474170566E0,-1.954768747E-1,3.564398587E-1
1.767081498E1,1.367727280E0,-2.408336252E-1,3.637702465E-1
1.768081498E1,1.318094492E0,-3.025310040E-1,3.439171314E-1
1.769081498E1,1.335198760E0,-2.973386645E-1,3.109304011E-1
1.770081498E1,1.382387996E0,-2.339613885E-1,2.745839357E-1
1.771081498E1,1.393536329E0,-2.386955917E-1,2.574796975E-1
1.772081498E1,1.357800722E0,-3.481931984E-1,2.678644061E-1
1.773081498E1,1.349859476E0,-3.966042697E-1,3.408628106E-1
1.774081498E1,1.361465931E0,-4.460843503E-1,4.578435123E-1
1.775081498E1,1.367116451E0,-5.161811113E-1,4.989241958E-1
1.776081498E1,1.405448198E0,-5.317581892E-1,4.951062799E-1
1.777081498E1,1.431257248E0,-5.314527750E-1,5.048801303E-1
1.778081498E1,1.422705173E0,-5.401576161E-1,5.073235631E-1
1.779081498E1,1.486693263E0,-5.623014569E-1,4.424191415E-1
1.780081498E1,1.506088257E0,-5.337435007E-1,4.155410826E-1
1.781081498E1,1.501812220E0,-4.859432876E-1,3.889684379E-1
1.782081498E1,1.490358472E0,-4.515821338E-1,3.831652105E-1
1.783081498E1,1.452332139E0,-4.520402849E-1,3.795000315E-1
1.784081498E1,1.406822681E0,-4.463897645E-1,3.637702465E-1
1.785081498E1,1.387885809E0,-3.998112977E-1,3.359758854E-1
1.786081498E1,1.371697903E0,-3.741549551E-1,3.178026378E-1
1.787081498E1,1.327410221E0,-3.758348525E-1,3.045163155E-1
1.788081498E1,1.267239928E0,-3.727805018E-1,3.008511364E-1
1.789081498E1,1.256091714E0,-3.593414724E-1,2.948952019E-1
1.790081498E1,1.243721604E0,-3.484986126E-1,2.901609838E-1
1.791081498E1,1.218981624E0,-3.413209617E-1,2.840523422E-1
1.792081498E1,1.185689449E0,-3.208569586E-1,2.732094824E-1
1.793081498E1,1.138958216E0,-3.188716471E-1,2.819143236E-1
1.794081498E1,1.081689596E0,-2.472477108E-1,2.811507285E-1
1.795081498E1,1.032362223E0,-2.293798923E-1,2.800817192E-1
1.796081498E1,9.685268402E-1,-2.252565622E-1,2.948952019E-1
1.797081498E1,8.849910498E-1,-2.247984111E-1,2.767219543E-1
1.798081498E1,7.225008607E-1,-1.824959964E-1,2.747366428E-1
1.799081498E1,5.413793325E-1,-1.220203340E-1,2.814561725E-1
1.800081498E1,4.344778955E-1,-7.483099122E-3,2.066251636E-1
1.801081498E1,2.510656118E-1,2.486221492E-1,7.162395120E-2
1.802081498E1,1.592831165E-1,2.283108830E-1,1.664607786E-2
1.803081498E1,2.023491114E-1,-1.252273750E-2,-2.000583708E-2
1.804081498E1,2.843577862E-1,-2.150245607E-1,-3.955352306E-2
1.805081498E1,2.932153046E-1,-3.544545472E-1,-8.307767659E-2
1.806081498E1,2.096794993E-1,-3.562871516E-1,-1.366810948E-1
1.807081498E1,7.788532227E-2,-3.231477141E-1,-1.985312104E-1
1.808081498E1,-6.994406879E-2,-2.756529450E-1,-2.127338201E-1
1.809081498E1,-1.426370293E-1,-2.568688393E-1,-2.063197345E-1
1.810081498E1,-1.769981980E-1,-2.524400651E-1,-1.708895564E-1
1.811081498E1,-1.540907621E-1,-2.109012306E-1,-1.096503139E-1
1.812081498E1,-9.208793938E-2,-1.479821056E-1,-5.451972410E-2
1.813081498E1,-3.756821156E-2,-7.651086897E-2,-1.634064503E-2
1.814081498E1,3.176499158E-2,-1.374446787E-2,6.933320314E-2
1.815081498E1,8.338310570E-2,-1.328631863E-2,9.483683109E-2
1.816081498E1,1.209513173E-1,-8.872817457E-2,6.139195710E-2
1.817081498E1,1.624901593E-1,-1.823432744E-1,1.572977938E-2
1.818081498E1,2.446515262E-1,-2.941316068E-1,-1.313360315E-2
1.819081498E1,3.159700334E-1,-4.195117056E-1,-2.611448988E-2
1.820081498E1,3.379611969E-1,-5.184718966E-1,-3.039054573E-2
1.821081498E1,3.061962128E-1,-5.360342264E-1,-3.283400834E-2
1.822081498E1,2.370157093E-1,-4.938845634E-1,-3.375030309E-2
1.823081498E1,1.459967941E-1,-3.674354553E-1,-3.283400834E-2
1.824081498E1,8.536841720E-2,-2.134974003E-1,-3.680463135E-2
1.825081498E1,7.422012836E-2,-9.224065393E-2,-4.718934000E-2
1.826081498E1,7.971791178E-2,-2.840523422E-2,-5.161811411E-2
1.827081498E1,6.352998316E-2,-6.566801574E-3,-4.780020565E-2
1.828081498E1,2.779436857E-2,5.345070735E-3,-4.535674304E-2
1.829081498E1,-7.788531948E-3,6.108652335E-3,-4.153883830E-2
1.830081498E1,-3.191770986E-2,6.841690838E-2,-4.856378585E-2
1.831081498E1,-4.260785133E-2,1.540907621E-1,-5.910121277E-2
1.832081498E1,-4.856378585E-2,2.510656118E-1,-8.536841720E-2
1.833081498E1,-4.825835302E-2,3.346014321E-1,-1.142318025E-1
1.834081498E1,-5.635231733E-2,3.923282027E-1,-1.346957833E-1
1.835081498E1,-5.665775016E-2,4.193589985E-1,-1.504255682E-1
1.836081498E1,-5.177082866E-2,4.256203473E-1,-1.661553532E-1
1.837081498E1,-6.948592514E-2,3.543018401E-1,-1.629483104E-1
1.838081498E1,-1.049161032E-1,2.324342281E-1,-1.452332139E-1
1.839081498E1,-1.186605766E-1,1.426370293E-1,-1.261436790E-1
1.840081498E1,-1.212567538E-1,4.321871698E-2,-1.082758680E-1
1.841081498E1,-1.215621829E-1,-4.138612002E-2,-9.285151958E-2
1.842081498E1,-1.307251602E-1,-9.804387391E-2,-8.338310570E-2
1.843081498E1,-1.285871267E-1,-7.483099401E-2,-6.261368841E-2
1.844081498E1,-1.076650023E-1,-8.063421398E-2,-6.994406879E-2
1.845081498E1,-7.559457421E-2,-8.643743396E-2,-6.887505949E-2
1.846081498E1,-8.597928286E-2,-1.453859210E-1,-7.162395120E-2
1.847081498E1,-1.108720452E-1,-2.302961946E-1,-6.459899992E-2
1.848081498E1,-1.154535338E-1,-2.646573782E-1,-5.986479297E-2
1.849081498E1,-1.154535338E-1,-2.634356320E-1,-5.742133409E-2
1.850081498E1,-1.148426682E-1,-2.021963894E-1,-5.711590126E-2
1.851081498E1,-1.114829108E-1,-1.776090711E-1,-5.207626149E-2
1.852081498E1,-1.227839142E-1,-2.625193298E-1,-3.665191308E-2
1.853081498E1,-1.227839142E-1,-2.625193298E-1,-3.665191308E-2
1.854081498E1,-8.643743396E-2,-2.168571651E-1,-5.955935922E-3
1.855081498E1,-4.749477282E-2,-7.544185966E-2,7.635815418E-4
1.856081498E1,-1.954768784E-2,7.192938030E-2,3.054326226E-4
1.857081498E1,-6.872233935E-3,1.420261711E-1,-6.108652451E-4
1.858081498E1,2.901609987E-3,1.543961912E-1,-1.679879380E-3
1.859081498E1,1.527163084E-3,1.568396538E-1,-2.901609987E-3
1.860081498E1,3.054326167E-3,1.408044398E-1,-4.276056774E-3
1.861081498E1,2.138028387E-3,1.102611795E-1,-5.650503561E-3
1.862081498E1,-1.221730490E-3,8.200865984E-2,-7.024950348E-3
1.863081498E1,-9.162978968E-4,5.131268129E-2,-5.955935922E-3
1.864081498E1,-3.054326167E-3,2.321287990E-2,-9.773843922E-3
1.865081498E1,-7.788531948E-3,-3.817907767E-3,-1.603521220E-2
1.866081498E1,-1.511891466E-2,-3.970623948E-3,-1.970040426E-2
1.867081498E1,-1.908953860E-2,2.061670274E-2,-2.443460934E-2
1.868081498E1,-1.527163107E-2,1.695151068E-2,-2.321287990E-2
1.869081498E1,-1.313360315E-2,3.543018550E-2,-2.550362423E-2
1.870081498E1,3.054326226E-4,4.902193695E-2,-2.916881628E-2
1.871081498E1,3.665191587E-3,7.971791178E-2,-3.268129006E-2
1.872081498E1,-8.399397135E-3,6.001751125E-2,-3.634648025E-2
1.873081498E1,-2.901609987E-2,2.794708498E-2,-4.016438872E-2
1.874081498E1,-5.085453019E-2,5.650503561E-3,-4.153883830E-2
1.875081498E1,-6.536258012E-2,-1.664607786E-2,-4.031710699E-2
1.876081498E1,-8.460483700E-2,-4.382958263E-2,-3.558290005E-2
1.877081498E1,-9.529497474E-2,-7.956519723E-2,-3.451388702E-2
1.878081498E1,-1.033889428E-1,-1.298088580E-1,-3.237585723E-2
1.879081498E1,-1.128573567E-1,-1.594358236E-1,-3.252857551E-2
1.880081498E1,-1.317941695E-1,-2.284636050E-1,-3.512475174E-3
1.881081498E1,-1.128573567E-1,-1.582140923E-1,-1.908953860E-2
1.882081498E1,-5.390885845E-2,-5.451972410E-2,-2.474004216E-2
1.883081498E1,-1.160643995E-2,1.206458826E-2,-2.565634064E-2
1.884081498E1,-1.053742506E-2,3.420845419E-2,-3.161227703E-2
1.885081498E1,-1.542434748E-2,2.932153270E-2,-3.161227703E-2
1.886081498E1,-2.260201424E-2,1.450804994E-2,-2.932153270E-2
1.887081498E1,-2.351831272E-2,-1.740965992E-2,-2.214386500E-2
1.888081498E1,-2.825251780E-2,-3.711006418E-2,-1.863138936E-2
1.889081498E1,-3.558290005E-2,-4.459316283E-2,-1.740965992E-2
1.890081498E1,-3.711006418E-2,-7.788531948E-3,-1.359175146E-2
1.891081498E1,-2.641992271E-2,2.290744707E-2,-1.343903504E-2
1.892081498E1,-2.275473066E-2,2.168571576E-2,-1.466076635E-2
1.893081498E1,-1.679879427E-2,4.260785133E-2,-1.817324013E-2
1.894081498E1,-5.039638374E-3,8.323039114E-2,-1.802052557E-2
1.895081498E1,-7.483099122E-3,8.811730891E-2,-1.435533352E-2
1.896081498E1,-1.572977938E-2,4.871650413E-2,-9.621127509E-3
1.897081498E1,-1.786780916E-2,2.657263726E-2,-4.886921961E-3
1.898081498E1,-2.229658142E-2,-1.634064503E-2,3.512475174E-3
1.899081498E1,-3.649919853E-2,-7.040221989E-2,4.428773187E-3
1.900081498E1,-5.299255997E-2,-1.246165112E-1,1.679879380E-3
1.901081498E1,-4.932736978E-2,-1.233947799E-1,1.679879380E-3
1.902081498E1,-3.512475267E-2,-7.666359097E-2,5.650503561E-3
1.903081498E1,-2.687807009E-2,-4.703662544E-2,4.581489135E-3
1.904081498E1,-3.298672289E-2,-5.329799280E-2,3.359758761E-3
1.905081498E1,-4.520402849E-2,-5.467243865E-2,5.803219974E-3
1.906081498E1,-4.535674304E-2,-4.001167417E-2,7.024950348E-3
1.907081498E1,-3.573561832E-2,-2.641992271E-2,1.206458826E-2
1.908081498E1,-2.733621933E-2,-1.038470957E-2,1.450804994E-2
1.909081498E1,-2.611448988E-2,-3.054326167E-3,1.572977938E-2
1.910081498E1,-2.015855350E-2,1.542434748E-2,1.588249579E-2
1.911081498E1,-9.315694682E-3,3.023782931E-2,1.588249579E-2
1.912081498E1,-2.138028387E-3,5.115996301E-2,1.359175146E-2
1.913081498E1,4.886921961E-3,7.834346592E-2,7.635815535E-3
1.914081498E1,6.108652335E-3,8.567385375E-2,3.970623948E-3
1.915081498E1,3.512475174E-3,9.178250283E-2,-9.162978968E-4
1.916081498E1,2.138028387E-3,1.029307917E-1,-4.428773187E-3
1.917081498E1,7.024950348E-3,1.041525230E-1,-4.428773187E-3
1.918081498E1,6.261368748E-3,6.246097013E-2,-7.177666761E-3
1.919081498E1,4.276056774E-3,1.832595654E-2,-8.552113548E-3
1.920081498E1,1.542434748E-2,1.359175146E-2,-8.552113548E-3
1.921081498E1,2.748893574E-2,3.084869497E-2,-6.108652335E-3
1.922081498E1,4.199698567E-2,5.177082866E-2,-3.512475174E-3
1.923081498E1,5.161811411E-2,7.651086897E-2,-4.734205548E-3
1.924081498E1,6.123924255E-2,9.621127695E-2,-4.581489135E-3
1.925081498E1,5.619960278E-2,9.728029370E-2,-5.803219974E-3
1.926081498E1,4.780020565E-2,8.994990587E-2,-8.246680722E-3
1.927081498E1,2.962696366E-2,6.643159688E-2,-9.621127509E-3
1.928081498E1,2.611448988E-2,5.283984542E-2,-8.399397135E-3
1.929081498E1,2.733621933E-2,4.306599870E-2,-6.108652335E-3
1.930081498E1,1.053742506E-2,6.108652335E-3,-7.483099122E-3
1.931081498E1,-8.704829961E-3,-2.474004216E-2,-7.635815535E-3
1.932081498E1,-1.847867295E-2,-2.611448988E-2,-9.926560335E-3
1.933081498E1,-1.160643995E-2,1.206458826E-2,-1.343903504E-2
1.934081498E1,4.276056774E-3,2.809980139E-2,-1.588249579E-2
1.935081498E1,1.878410578E-2,4.428773001E-2,-2.306016348E-2
1.936081498E1,2.932153270E-2,8.491026610E-2,-2.901609987E-2
1.937081498E1,4.138612002E-2,1.033889428E-1,-2.153299935E-2
1.938081498E1,1.343903504E-2,8.597928286E-2,-4.001167417E-2
1.939081498E1,-3.512475174E-3,6.017022580E-2,-6.688974798E-2
1.940081498E1,-1.786780916E-2,2.336559631E-2,-9.025534242E-2
1.941081498E1,-1.282817032E-2,8.857546374E-3,-1.014036313E-1
1.942081498E1,-1.847867295E-2,-3.924809024E-2,-5.528330430E-2
1.943081498E1,-4.581489484E-4,-3.359758761E-3,-9.773843735E-2
1.944081498E1,4.153883830E-2,8.552113175E-2,-1.035416573E-1
1.945081498E1,5.971207842E-2,1.088867337E-1,-7.895433158E-2
1.946081498E1,2.504547499E-2,2.367102914E-2,-5.131268129E-2
1.947081498E1,-1.053742506E-2,2.794708498E-2,4.886921961E-3
1.948081498E1,-1.450804994E-2,6.200282276E-2,3.191770986E-2
1.949081498E1,-1.725694351E-2,9.010262042E-2,4.306599870E-2
1.950081498E1,-6.414085161E-3,1.110247597E-1,4.199698567E-2
1.951081498E1,2.290744567E-3,9.162978828E-2,2.962696366E-2
1.952081498E1,0.000000000E0,8.185594529E-2,2.474004216E-2
1.953081498E1,-1.099557430E-2,6.826419383E-2,2.229658142E-2
1.954081498E1,-1.572977938E-2,6.078109145E-2,2.580905706E-2
1.955081498E1,-1.588249579E-2,7.299839705E-2,3.329215571E-2
1.956081498E1,-1.328631863E-2,6.322455406E-2,3.069597855E-2
1.957081498E1,-1.664607786E-2,2.397646010E-2,2.199114859E-2
1.958081498E1,-1.893682219E-2,9.315694682E-3,1.343903504E-2
1.959081498E1,-1.053742506E-2,2.412917651E-2,6.108652335E-3
1.960081498E1,3.054326226E-4,5.131268129E-2,2.596177394E-3
1.961081498E1,9.926560335E-3,6.734789163E-2,2.596177394E-3
1.962081498E1,7.483099122E-3,6.490442902E-2,2.596177394E-3
1.963081498E1,2.596177394E-3,5.864306539E-2,3.817907767E-3
1.964081498E1,-3.512475174E-3,5.986479297E-2,5.039638374E-3
1.965081498E1,1.527163113E-4,6.475171447E-2,9.926560335E-3
1.966081498E1,3.817907767E-3,7.223481685E-2,8.857546374E-3
1.967081498E1,4.886921961E-3,7.712173462E-2,7.635815535E-3
1.968081498E1,5.192354787E-3,5.742133409E-2,7.483099122E-3
1.969081498E1,2.901609987E-3,3.054326214E-2,4.886921961E-3
1.970081498E1,2.748893574E-3,4.886921868E-2,1.527163113E-4
1.971081498E1,1.114829071E-2,7.345654815E-2,-9.162978968E-4
1.972081498E1,1.084285788E-2,9.804387391E-2,4.581489484E-4
1.973081498E1,5.955935922E-3,9.682214260E-2,-1.985311974E-3
1.974081498E1,-3.970623948E-3,1.003346145E-1,4.581489484E-4
1.975081498E1,5.345070735E-3,1.434006095E-1,-6.108652451E-4
1.976081498E1,1.725694351E-2,1.777617931E-1,7.635815418E-4
1.977081498E1,2.336559631E-2,1.840231568E-1,7.635815418E-4
1.978081498E1,1.588249579E-2,1.985312104E-1,3.359758761E-3
1.979081498E1,1.069014147E-2,2.170098722E-1,-1.527163113E-4
1.980081498E1,6.872233935E-3,2.390010208E-1,-2.443460980E-3
1.981081498E1,7.788531948E-3,2.599231601E-1,-4.886921961E-3
1.982081498E1,1.023199316E-2,2.587014437E-1,-2.443460980E-3
1.983081498E1,1.298088674E-2,2.341141105E-1,-5.039638374E-3
1.984081498E1,1.557706390E-2,2.218967974E-1,-6.261368748E-3
1.985081498E1,2.031126991E-2,2.367102802E-1,-5.039638374E-3
1.986081498E1,4.428773001E-2,3.019201458E-1,1.374446787E-3
1.987081498E1,7.238753140E-2,3.022255898E-1,-2.290744567E-3
1.988081498E1,6.475171447E-2,2.163990140E-1,-5.192354787E-3
1.989081498E1,4.092797264E-2,1.449277848E-1,-5.497787148E-3
1.990081498E1,8.704829961E-3,6.246097013E-2,-3.512475174E-3
1.991081498E1,-1.496619824E-2,-1.496619824E-2,-2.596177394E-3
1.992081498E1,-1.954768784E-2,-4.321871698E-2,-2.748893574E-3
1.993081498E1,-1.359175146E-2,-2.733621933E-2,-1.527163084E-3
1.994081498E1,-4.123340361E-3,-1.527163113E-4,-1.374446787E-3
1.995081498E1,2.901609987E-3,3.787364438E-2,1.527163113E-4
1.996081498E1,1.007927675E-2,5.024366826E-2,3.817907767E-3
1.997081498E1,2.168571576E-2,1.116356254E-1,2.901609987E-3
1.998081498E1,3.940080851E-2,1.768454909E-1,4.428773187E-3
1.999081498E1,5.833763257E-2,2.382374406E-1,3.512475174E-3
2.000081498E1,6.322455406E-2,2.408336252E-1,4.734205548E-3
2.001081498E1,4.535674304E-2,1.927279830E-1,6.872233935E-3
2.002081498E1,2.886338346E-2,1.276708394E-1,1.145372353E-2
2.003081498E1,1.740965992E-2,5.879577994E-2,1.114829071E-2
2.004081498E1,-3.665191587E-3,-3.451388702E-2,9.468411095E-3
2.005081498E1,-2.443460934E-2,-4.948008433E-2,-3.054326226E-4
