"Time (s)","Acceleration x (m/s^2)","Acceleration y (m/s^2)","Acceleration z (m/s^2)"
2.190653000E-2,-4.182653904E0,5.530411243E0,6.409773827E0
3.012260400E-2,-4.292125702E0,5.561518192E0,6.840481758E0
4.012260400E-2,-4.204787731E0,5.490331650E0,7.476972580E0
5.012260400E-2,-3.835694790E0,5.261816978E0,8.114061356E0
6.012260400E-2,-3.528815269E0,5.163711071E0,8.483154297E0
7.012260400E-2,-3.308675528E0,5.229514122E0,8.681160927E0
8.012260400E-2,-3.083750248E0,5.243870735E0,8.729615211E0
9.012260400E-2,-2.888735056E0,4.627120972E0,7.955537319E0
1.001226040E-1,-2.602194548E0,4.485944271E0,7.596613884E0
1.101226040E-1,-2.272583246E0,4.482355118E0,7.463811874E0
1.201226040E-1,-2.081157446E0,4.415954113E0,7.402196884E0
1.301226040E-1,-1.837687731E0,4.325026989E0,7.349554539E0
1.401226040E-1,-1.319641709E0,4.106083870E0,8.020741463E0
1.501226040E-1,-1.032503009E0,4.194618225E0,8.472386360E0
1.601226040E-1,-7.489534616E-1,4.143172264E0,9.043074608E0
1.701226040E-1,-5.910272002E-1,3.997210264E0,9.397212982E0
1.801226040E-1,-6.526423693E-1,4.030111313E0,9.535996437E0
1.901226040E-1,-8.297112584E-1,3.739981890E0,9.217152596E0
2.001226040E-1,-5.868397355E-1,3.732803345E0,8.863613129E0
2.101226040E-1,-1.758724600E-1,3.381656647E0,8.437092781E0
2.201226040E-1,8.195417374E-2,2.889931440E0,8.281558990E0
2.301226040E-1,4.552344978E-1,2.584846735E0,8.161319733E0
2.401226040E-1,1.061815023E0,2.405983210E0,7.789236069E0
2.501226040E-1,1.563111424E0,2.178664923E0,7.430312634E0
2.601226040E-1,1.783251047E0,2.064407825E0,7.334599495E0
2.701226040E-1,1.797608018E0,2.843271494E0,7.593622684E0
2.801226040E-1,1.549950838E0,4.015156269E0,8.356932640E0
2.901226040E-1,1.718644857E0,5.107480049E0,9.762716293E0
3.001226040E-1,2.956930637E0,4.379463673E0,9.250054359E0
3.101226040E-1,3.912863255E0,3.445664644E0,8.730812073E0
3.201226040E-1,4.394418716E0,2.422732830E0,7.773084164E0
3.301226040E-1,4.382454872E0,1.198804140E0,6.123233318E0
3.401226040E-1,4.052245140E0,3.206382394E-1,5.690132141E0
3.501226040E-1,3.359523058E0,-3.655036688E-1,5.869594097E0
3.601226040E-1,2.190030813E0,-1.179661512E0,6.592824459E0
3.701226040E-1,1.759322882E0,-1.322632670E0,6.436692715E0
3.801226040E-1,1.539183140E0,-9.876375198E-1,6.399604321E0
3.901226040E-1,2.031506538E0,-1.328016520E-1,6.675376892E0
4.001226040E-1,3.929612875E0,1.161715388E0,6.623931408E0
4.101226040E-1,3.894917011E0,1.274776220E0,6.169294834E0
4.201226040E-1,3.740580082E0,2.227119684E0,5.389832973E0
4.301226040E-1,4.427918434E0,3.710669756E0,2.428116798E0
4.401226040E-1,5.020142078E0,3.963112593E0,1.953141451E0
4.501226040E-1,3.609572887E0,1.281356573E0,1.246062398E0
4.601226040E-1,2.641077995E0,-3.708875179E-1,2.055434704E0
4.701226040E-1,2.012363911E0,-2.254039049E0,3.118446112E0
4.801226040E-1,2.078764677E0,-3.559323788E0,5.178666592E0
4.901226040E-1,3.435495138E0,-3.915854216E0,7.250252724E0
5.001226040E-1,4.133002758E0,-2.965903759E0,1.003190899E1
5.101226040E-1,4.316053867E0,-1.843669891E0,8.133802414E0
5.201226040E-1,4.972285271E0,-2.073380709E0,5.956333637E0
5.301226040E-1,5.363512039E0,-1.959721804E0,5.469992638E0
5.401226040E-1,5.446662426E0,-1.920240164E0,6.806384087E0
5.501226040E-1,6.196812630E0,-2.874976397E0,8.800203323E0
5.601226040E-1,6.671787739E0,-2.618944407E0,9.948160172E0
5.701226040E-1,7.385447025E0,-2.145763636E0,1.090648556E1
5.801226040E-1,7.088737011E0,-2.173879385E0,1.075214863E1
5.901226040E-1,6.863811970E0,-2.391626120E0,1.034297562E1
6.001226040E-1,7.082156658E0,-2.543570518E0,9.485747337E0
6.101226040E-1,7.219145775E0,-2.932404041E0,8.166703224E0
6.201226040E-1,7.844869137E0,-2.901297569E0,7.858029366E0
6.301226040E-1,8.883354187E0,-2.269592285E0,8.756534576E0
6.401226040E-1,9.534201622E0,-2.257030010E0,9.070592880E0
6.501226040E-1,9.696913719E0,-2.434098721E0,9.165707588E0
6.601226040E-1,1.153041458E1,-1.499103427E0,1.056251717E1
6.701226040E-1,1.137727356E1,-9.260223508E-1,1.075274658E1
6.801226040E-1,1.081256771E1,-8.703892231E-1,1.026700401E1
6.901226040E-1,1.030947590E1,-1.120439172E0,9.579067230E0
7.001226040E-1,9.801001549E0,-1.703689694E0,8.691927910E0
7.101226040E-1,1.070489025E1,-2.630310297E0,8.512466431E0
7.201226040E-1,1.163809109E1,-2.950948477E0,8.643473625E0
7.301226040E-1,1.264247799E1,-3.042474031E0,8.833105087E0
7.401226040E-1,1.357508087E1,-2.565105915E0,9.160921097E0
7.501226040E-1,1.387179089E1,-1.748555183E0,9.473783493E0
7.601226040E-1,1.327298737E1,-8.219345808E-1,8.964710236E0
7.701226040E-1,1.274118233E1,-7.615157962E-1,8.359924316E0
7.801226040E-1,1.213699436E1,-6.466603279E-1,7.563114166E0
7.901226040E-1,1.143769264E1,-5.940182209E-1,6.699305058E0
8.001226040E-1,1.080957603E1,-7.567301393E-1,5.857629776E0
8.101226040E-1,1.107099247E1,-1.190429211E0,4.869394302E0
8.201226040E-1,1.127198887E1,-1.496710539E0,4.877768993E0
8.301226040E-1,1.108594704E1,-1.459023595E0,4.977669239E0
8.401226040E-1,1.097647572E1,-1.203589797E0,5.395814896E0
8.501226040E-1,1.112483025E1,-1.198804140E0,5.453841209E0
8.601226040E-1,1.088435173E1,-1.495514154E0,4.646263599E0
8.701226040E-1,1.062532902E1,-1.362712502E0,4.062414646E0
8.801226040E-1,1.038066292E1,-1.144367456E0,3.564707518E0
8.901226040E-1,1.007856941E1,-1.013360381E0,3.229114056E0
9.001226040E-1,9.839286804E0,-8.931210637E-1,3.123830080E0
9.101226040E-1,9.676574707E0,-8.362914920E-1,3.180659533E0
9.201226040E-1,9.247062683E0,-1.387837172E0,3.281157970E0
9.301226040E-1,8.922237396E0,-1.968096614E0,3.439084291E0
9.401226040E-1,8.541180611E0,-2.712862730E0,3.892524242E0
9.501226040E-1,8.231907845E0,-3.379263878E0,4.816154003E0
9.601226040E-1,8.122436523E0,-3.960121393E0,5.032105923E0
9.701226040E-1,7.921439171E0,-4.365106583E0,4.746163845E0
9.801226040E-1,7.882555962E0,-4.156332970E0,4.277768612E0
9.901226040E-1,7.857431412E0,-3.790230989E0,3.835096598E0
1.000122604E0,7.861618996E0,-3.548556089E0,3.506083488E0
1.010122604E0,7.880163193E0,-3.495315790E0,3.363112211E0
1.020122604E0,7.595417500E0,-3.975076675E0,4.264009953E0
1.030122604E0,7.213762283E0,-4.404588223E0,4.819743156E0
1.040122604E0,6.817151546E0,-4.850849628E0,4.911268711E0
1.050122604E0,6.315257072E0,-5.219942570E0,4.950151920E0
1.060122604E0,5.961717606E0,-5.211567879E0,5.102096081E0
1.070122604E0,5.560919762E0,-4.640281200E0,5.525625706E0
1.080122604E0,5.374877930E0,-4.308277130E0,5.991029739E0
1.090122604E0,5.203192711E0,-3.956532240E0,6.375676155E0
1.100122604E0,5.035097122E0,-3.576671600E0,6.085546017E0
1.110122604E0,5.177470207E0,-3.199203968E0,5.374877930E0
1.120122604E0,5.596213818E0,-2.442473650E0,4.581656933E0
1.130122604E0,5.692524910E0,-2.285743713E0,4.875376225E0
1.140122604E0,5.818148136E0,-2.376072884E0,5.511867046E0
1.150122604E0,5.891129494E0,-2.600998163E0,6.300900459E0
1.160122604E0,5.916254044E0,-2.802593470E0,7.080362320E0
1.170122604E0,6.032305717E0,-3.212364435E0,7.609774113E0
1.180122604E0,6.385845661E0,-3.349951744E0,7.481160164E0
1.190122604E0,6.624529362E0,-3.238087177E0,7.223931789E0
1.200122604E0,6.757929325E0,-2.998206854E0,7.125227451E0
1.210122604E0,7.216753006E0,-2.790629387E0,6.955935478E0
1.220122604E0,7.484150887E0,-2.708076954E0,6.747161865E0
1.230122604E0,7.859225750E0,-2.382055044E0,5.184648514E0
1.240122604E0,8.053643227E0,-2.190629244E0,4.435096741E0
1.250122604E0,7.899903774E0,-2.292324066E0,3.873381615E0
1.260122604E0,7.550551891E0,-2.740380049E0,3.553341627E0
1.270122604E0,7.158128738E0,-3.260818958E0,3.275176048E0
1.280122604E0,7.448856831E0,-3.719642878E0,2.531606436E0
1.290122604E0,7.687541008E0,-3.894917011E0,2.239083767E0
1.300122604E0,7.180262566E0,-4.085146427E0,1.996212244E0
1.310122604E0,6.534798622E0,-4.366901398E0,1.762313843E0
1.320122604E0,5.530411243E0,-4.476373196E0,1.618744493E0
1.330122604E0,1.576451397E1,-1.574896049E1,-6.161518097E-1
1.340122604E0,6.748358250E0,-9.705288887E0,2.184048891E0
1.350122604E0,5.108676434E0,-9.001798630E0,2.670988321E0
1.360122604E0,8.580063820E0,-9.514460564E0,2.498705149E0
1.370122604E0,5.615954876E0,-9.895518303E0,2.628515720E0
1.380122604E0,-3.891926050E0,-8.243872643E0,1.994417667E0
1.390122604E0,8.787640929E-1,-8.175078392E0,-1.463211060E0
1.400122604E0,-5.934200287E-1,-1.119661522E1,-2.143969059E0
1.410122604E0,1.844268084E0,-1.340638733E1,-5.108676553E-1
1.420122604E0,7.100701332E0,-1.508435440E1,-9.451649338E-2
1.430122604E0,1.032562828E1,-9.346963882E0,2.688336134E0
1.440122604E0,9.551549911E0,-5.699105263E0,4.016352654E0
1.450122604E0,1.240857983E1,-4.958526611E0,3.050250769E0
1.460122604E0,1.484686661E1,-4.774279594E0,-8.973085321E-3
1.470122604E0,1.401595879E1,-3.486342669E0,-1.799402595E0
1.480122604E0,1.260120201E1,-3.072384357E0,-1.562513232E0
1.490122604E0,5.520241737E0,-4.628915310E0,1.517647743E0
1.500122604E0,4.706083775E0,-3.530609846E0,1.042672515E0
1.510122604E0,6.192625046E0,-2.800798893E0,7.992027402E-1
1.520122604E0,9.385847092E0,-3.244069338E0,1.525424421E-1
1.530122604E0,1.139521980E1,-6.317051888E0,-1.992024779E-1
1.540122604E0,9.155537605E0,-1.464527130E1,-3.392424345E0
1.550122604E0,6.726822853E0,-1.844567108E1,-4.412364960E0
1.560122604E0,4.228117466E0,-2.047777557E1,-3.573082447E0
1.570122604E0,3.562314749E0,-1.935733604E1,-1.413560033E0
1.580122604E0,3.570689678E0,-1.732343864E1,1.615753531E0
1.590122604E0,6.270989895E0,-1.294636726E1,4.584648132E0
1.600122604E0,5.446662426E0,-1.221117210E1,3.934996843E0
1.610122604E0,6.103492260E0,-1.149212933E1,2.352144718E0
1.620122604E0,7.826922894E0,-1.088255692E1,7.633104324E-1
1.630122604E0,1.087657547E1,-9.409774780E0,6.406782866E-1
1.640122604E0,1.033101177E1,-1.115354443E1,5.382654667E0
1.650122604E0,8.891130447E0,-1.194018459E1,4.735395908E0
1.660122604E0,6.895516872E0,-1.187079334E1,1.021735311E0
1.670122604E0,5.115854740E0,-1.092921734E1,-2.014756680E0
1.680122604E0,5.181059361E0,-9.043074608E0,1.998006850E-1
1.690122604E0,2.997010469E0,-3.626920938E0,2.342573404E0
1.700122604E0,-3.306282759E0,-1.910070658E0,-3.536591768E0
1.710122604E0,-3.649652719E0,7.028916478E-1,-5.106283665E0
1.720122604E0,-1.628913999E0,2.584846735E0,-2.749951363E0
1.730122604E0,-1.984248161E0,2.785245657E0,-3.420539856E0
1.740122604E0,-6.640082598E-2,4.429114819E0,-2.736790895E0
1.750122604E0,8.919246197E-1,4.418945312E0,-1.813759565E0
1.760122604E0,1.696511269E0,3.509672642E0,-9.690931439E-1
1.770122604E0,2.234896421E0,9.840483069E-1,-3.320041299E-1
1.780122604E0,1.847259045E0,-5.081757069E0,7.100701332E-1
1.790122604E0,-2.380858511E-1,-1.252463150E1,1.310668588E0
1.800122604E0,-3.142972469E0,-1.073898792E1,3.097508907E0
1.810122604E0,9.891928673E0,-1.403330708E1,8.082356453E0
1.820122604E0,9.586245537E0,-1.922393799E1,9.421738982E-1
1.830122604E0,2.257628202E0,-1.019701385E1,-3.955934048E0
1.840122604E0,-2.613560438E0,-4.651049137E0,-4.432703972E0
1.850122604E0,8.490332603E0,-1.677189255E1,-1.680359721E0
1.860122604E0,-1.603191137E0,-1.872802544E1,-1.305105305E1
1.870122604E0,1.112183952E1,-1.833799362E1,-9.499505997E0
1.880122604E0,2.246381950E1,-1.288415337E1,-5.456233978E0
1.890122604E0,2.482912445E1,-4.520041943E0,-1.103689432E0
1.900122604E0,1.833380699E1,-9.469595909E0,4.974080086E0
1.910122604E0,1.113799095E1,-1.233260822E1,7.255038261E0
1.920122604E0,7.496115208E0,-1.178943729E1,2.642872572E0
1.930122604E0,6.839285374E0,-1.294696522E1,-1.345962763E0
1.940122604E0,6.422934055E0,-1.363430309E1,-4.752145767E0
1.950122604E0,6.019145489E0,-1.406441307E1,-3.309871912E0
1.960122604E0,8.086544037E0,-1.447657681E1,-2.227119684E0
1.970122604E0,1.263290691E1,-1.310249901E1,-2.455035925E0
1.980122604E0,1.403211021E1,-1.129232788E1,-2.398804724E-1
1.990122604E0,1.368574905E1,-7.762914658E0,2.410170555E0
2.000122604E0,1.185643578E1,-3.773481369E0,4.731806755E0
2.010122604E0,5.059623718E0,-5.304289818E0,2.976671457E0
2.020122604E0,-1.608455467E1,-1.377308750E1,-7.660023689E0
2.030122604E0,-1.461057472E1,-1.396810246E1,-9.967901230E0
2.040122604E0,-4.451248169E0,-7.456035137E0,-6.085546017E0
2.050122604E0,2.868396044E0,5.204389095E-1,-1.869392633E0
2.060122604E0,2.891128063E0,8.727820516E-1,6.658028960E-1
2.070122604E0,3.906282902E0,8.793623447E-1,1.345364571E0
2.080122604E0,5.121238708E0,2.189432681E-1,1.503290772E0
2.090122604E0,4.753940582E0,-4.959124923E-1,1.655833244E0
2.100122604E0,3.623929977E0,-1.972284079E0,3.583251834E-1
2.110122604E0,7.502097130E0,-8.001599312E0,7.589435101E0
2.120122604E0,5.841478348E0,-4.512265205E0,1.029691410E1
2.130122604E0,3.029911757E0,-1.245464206E0,5.671587944E0
2.140122604E0,1.473978758E0,-1.794616938E0,1.563111424E0
2.150122604E0,1.917249203E0,-3.136392355E0,3.397808075E-1
2.160122604E0,2.620140910E-1,-6.738786697E0,4.466801643E0
2.170122604E0,-1.430907965E0,-7.204789162E0,1.541576028E0
2.180122604E0,-2.506481707E-1,-7.655237675E0,-5.045864582E0
2.190122604E0,9.810572863E-1,-8.819944382E0,-9.200403214E0
2.200122604E0,2.619542599E0,-8.735597610E0,-1.018923664E1
2.210122604E0,4.086342812E0,-6.917052269E0,-4.660620213E0
2.220122604E0,7.349554539E0,-8.366504669E0,-3.647259951E0
2.230122604E0,9.945169449E0,-1.216331577E1,-2.296511650E0
2.240122604E0,1.069950676E1,-1.467039585E1,-3.803391695E0
2.250122604E0,9.833304405E0,-1.218365479E1,-6.587440968E0
2.260122604E0,6.558726788E0,-7.534400463E0,9.667003751E-1
2.270122604E0,5.599802971E0,-1.043988514E1,-1.349551916E0
2.280122604E0,4.605585575E0,-1.434018612E1,-2.297109842E0
2.290122604E0,5.762515068E0,-1.563171196E1,1.674975827E-2
2.300122604E0,8.500502586E0,-1.725763512E1,-1.376471281E0
2.310122604E0,8.507082939E0,-1.731266975E1,-2.470589429E-1
2.320122604E0,6.745367050E0,-1.569452381E1,-1.239482164E0
2.330122604E0,4.789234638E0,-1.388973713E1,-8.572286963E-1
2.340122604E0,4.413561344E0,-1.327597809E1,4.283152521E-1
2.350122604E0,3.763910055E0,-1.212862015E1,-1.745564103E0
2.360122604E0,1.719841242E0,-1.055474091E1,-2.614757061E0
2.370122604E0,1.100698471E0,-8.210970879E0,-3.244069338E0
2.380122604E0,1.004387259E0,-7.793423176E0,-3.533600807E0
2.390122604E0,1.396211982E0,-7.543373585E0,-3.583251953E0
2.400122604E0,1.969891191E0,-6.614359856E0,-3.594019651E0
2.410122604E0,2.376072884E0,-6.270989895E0,-3.399004459E0
2.420122604E0,1.950150430E-1,-3.985246181E0,-3.378665686E0
2.430122604E0,-2.303091735E-1,-4.133002758E0,-5.174478889E-1
2.440122604E0,2.624328136E0,-5.909075737E0,-7.812566161E-1
2.450122604E0,4.465605259E0,-7.619345665E0,-1.019940615E0
2.460122604E0,5.809773445E0,-8.280363083E0,-8.033902049E-1
2.470122604E0,6.777071953E0,-9.519845009E0,-6.394818425E-1
2.480122604E0,6.375676155E0,-1.023769188E1,-6.747759581E-1
2.490122604E0,5.725426197E0,-1.090887833E1,-6.478567123E-1
2.500122604E0,5.156532764E0,-1.145324516E1,-8.835497499E-1
2.510122604E0,4.328616142E0,-1.115533924E1,-1.186241865E0
2.520122604E0,6.215356588E-1,-5.566901684E0,-2.984447956E0
2.530122604E0,-4.151547253E-1,-8.225327730E-1,-4.131806374E0
2.540122604E0,-1.135394335E0,1.195214868E0,-2.373680115E0
2.550122604E0,-6.478567123E-1,-4.606183469E-1,-6.460621208E-2
2.560122604E0,1.010967568E-1,-3.039483070E0,7.310073376E-1
2.570122604E0,-2.117647976E-1,-4.395615101E0,-6.005984545E-1
2.580122604E0,-3.810569942E-1,-5.038087845E0,-1.979462504E0
2.590122604E0,-3.559323549E-1,-5.747560024E0,-1.734796405E0
2.600122604E0,-2.440679073E-1,-6.308676720E0,-7.663014531E-1
2.610122604E0,-1.142572835E-1,-7.000202656E0,-4.301098585E-1
2.620122604E0,4.181457460E-1,-1.104885864E1,-3.481557071E-1
2.630122604E0,2.416750938E-1,-1.169551849E1,-3.433700502E-1
2.640122604E0,4.169493318E-1,-1.203111267E1,1.292722464E0
2.650122604E0,9.445667267E-1,-1.202692509E1,2.237887383E0
2.660122604E0,1.456032634E0,-1.082692432E1,2.520838737E0
2.670122604E0,1.217348576E0,-9.870991707E0,3.613162339E-1
2.680122604E0,7.322037220E-1,-9.423533440E0,-8.009973764E-1
2.690122604E0,9.619147182E-1,-7.627720356E0,-2.141576260E-1
2.700122604E0,1.402194023E0,-6.686742783E0,1.286142170E-1
2.710122604E0,2.771486759E0,-1.375693512E1,2.047059774E0
2.720122604E0,3.713062525E0,-1.906959915E1,3.027518749E0
2.730122604E0,3.758526087E0,-2.407658195E1,3.206382275E0
2.740122604E0,3.540779352E0,-2.313022041E1,1.808973908E0
2.750122604E0,3.589832067E0,-2.224846458E1,1.818545163E-1
2.760122604E0,3.547957659E0,-2.123151588E1,-1.775474429E0
2.770122604E0,4.327419758E0,-1.824048615E1,-3.917648792E0
2.780122604E0,3.260818958E0,-1.130848026E1,-2.077568293E0
2.790122604E0,1.996212244E0,-1.012044334E1,-1.639083475E-1
2.800122604E0,1.538584948E0,-1.035972595E1,5.461617708E-1
2.810122604E0,1.677368641E0,-9.643673897E0,8.817551732E-1
2.820122604E0,1.878365755E0,-9.421140671E0,1.204786181E0
2.830122604E0,1.853241086E0,-8.950951576E0,3.266202807E-1
2.840122604E0,1.637288928E0,-8.671588898E0,-2.991028363E-3
2.850122604E0,1.450050473E0,-8.435297966E0,-3.326023519E-1
2.860122604E0,1.540379524E0,-8.198408127E0,-6.849454641E-1
2.870122604E0,1.759921074E0,-7.876574039E0,-8.398807645E-1
2.880122604E0,2.731407166E0,-8.222934723E0,-4.313062727E-1
2.890122604E0,3.159124136E0,-8.188837051E0,-2.000399828E0
2.900122604E0,2.988037348E0,-6.709474564E0,-3.634099483E0
2.910122604E0,2.063211441E0,-6.004788399E0,-4.662415028E0
2.920122604E0,1.022333503E0,-5.638686657E0,-3.677768469E0
2.930122604E0,3.541377485E-1,-3.876971006E0,-5.311468124E0
2.940122604E0,3.661018610E-1,-3.695714474E0,-3.773481369E0
2.950122604E0,7.938188910E-1,-3.740580082E0,-2.656631231E0
2.960122604E0,1.449452281E0,-3.863212109E0,-2.118246317E0
2.970122604E0,2.114656925E0,-3.906282902E0,-1.967498422E0
2.980122604E0,2.421536446E0,-4.159324169E0,-1.316650629E0
2.990122604E0,3.396611691E0,-5.864808083E0,6.251249313E-1
3.000122604E0,3.025724173E0,-7.430910587E0,1.485344648E0
3.010122604E0,2.654836655E0,-8.781061172E0,2.298904419E0
3.020122604E0,2.414358139E0,-1.018923664E1,4.003192425E0
3.030122604E0,2.650649309E0,-1.188335514E1,4.749752998E0
3.040122604E0,3.863212109E0,-1.499701595E1,5.304289818E0
3.050122604E0,3.818944931E0,-1.654098511E1,4.322634220E0
3.060122604E0,4.512863636E0,-1.869392776E1,1.261017561E0
3.070122604E0,4.907679081E0,-2.097428703E1,-3.640679598E0
3.080122604E0,3.494119167E0,-2.215394783E1,-5.684150219E0
3.090122604E0,-8.333004713E-1,-2.703052139E1,-4.070191383E0
3.100122604E0,-2.753540754E0,-2.734457970E1,-7.657032460E-2
3.110122604E0,-1.043868899E0,-2.342513466E1,2.426322222E0
3.120122604E0,3.064607620E0,-1.903191376E1,1.531406522E0
3.130122604E0,5.423332691E0,-1.740718651E1,-1.974078640E-2
3.140122604E0,3.503690481E0,-1.650210190E1,-1.132403374E0
3.150122604E0,3.312264681E0,-1.576989746E1,-1.186241865E0
3.160122604E0,4.612763882E0,-1.513340664E1,-1.033101201E0
3.170122604E0,5.165505886E0,-1.419362545E1,-1.978266120E0
3.180122604E0,4.877768993E0,-1.336511135E1,-2.088934183E0
3.190122604E0,1.930409670E0,-8.634500504E0,-2.012962103E0
3.200122604E0,6.323033571E-1,-6.908677101E0,-2.653042078E0
3.210122604E0,-2.524427772E-1,-5.791228771E0,-2.395813704E0
3.220122604E0,-8.398807645E-1,-5.201996326E0,-1.819741607E0
3.230122604E0,-8.632107973E-1,-4.328616142E0,-1.411765337E0
3.240122604E0,-8.769695163E-1,-3.648456335E0,-7.704889178E-1
3.250122604E0,-8.147560954E-1,-2.268395901E0,-2.590230405E-1
3.260122604E0,-3.463610709E-1,-9.391828775E-1,-1.375873014E-2
3.270122604E0,5.000999570E-1,5.569294691E-1,4.007977843E-1
3.280122604E0,1.514656782E0,1.778465390E0,1.049252748E0
3.290122604E0,2.476571321E0,2.708076954E0,1.801197290E0
3.300122604E0,5.283950806E0,4.217350006E0,2.654836655E0
3.310122604E0,6.867401123E0,4.195216179E0,2.859423161E-1
3.320122604E0,8.923434258E0,3.002394199E0,-3.027518749E0
3.330122604E0,7.391428947E0,1.375873014E-2,-2.133201361E0
3.340122604E0,4.307679176E0,-8.745766878E-1,-2.011765718E0
3.350122604E0,6.460621357E-1,-1.310070455E-1,-1.312463164E0
3.360122604E0,-1.052841991E-1,6.311069727E-1,-1.573879123E0
3.370122604E0,-4.229314029E-1,-1.980060786E-1,-2.992822886E0
3.380122604E0,-7.698906660E-1,-2.886342287E0,-2.441277266E0
3.390122604E0,-9.098708034E-1,-6.023332596E0,-1.336391449E0
3.400122604E0,-2.755933523E0,-2.013859367E1,3.244667530E0
3.410122604E0,-3.607180119E0,-2.691207695E1,4.122833252E0
3.420122604E0,-6.900302410E0,-3.800221252E1,4.613960266E0
3.430122604E0,-9.798010826E0,-4.899543762E1,7.300501823E0
3.440122604E0,-4.851448059E0,-3.839702606E1,6.008377552E0
3.450122604E0,3.284149170E-1,-1.433659649E1,4.868795872E0
3.460122604E0,5.515456200E-1,-1.133599758E1,4.936991215E0
3.470122604E0,1.817947030E0,-1.009352398E1,4.667200565E0
3.480122604E0,3.689134359E0,-9.273982048E0,3.228515863E0
3.490122604E0,3.853042603E0,-9.265008926E0,1.045663476E0
3.500122604E0,1.456032634E0,-1.316530991E1,-8.033902049E-1
3.510122604E0,6.993024349E-1,-1.430788326E1,-1.857428551E0
3.520122604E0,2.099701911E-1,-1.453520107E1,-3.028715372E0
3.530122604E0,4.546362907E-2,-1.409432316E1,-3.917648792E0
3.540122604E0,-4.085744619E-1,-1.407996655E1,-3.990629911E0
3.550122604E0,-3.445664644E-1,-1.358584881E1,-2.651247501E0
3.560122604E0,7.166503668E-1,-1.105184937E1,8.739784956E-1
3.570122604E0,9.708877802E-1,-1.042851925E1,1.539781332E0
3.580122604E0,1.257428288E0,-1.011147022E1,1.336989641E0
3.590122604E0,1.629512191E0,-9.480961800E0,8.536394835E-1
3.600122604E0,2.072782516E0,-8.103892326E0,3.421736360E-1
3.610122604E0,2.876770973E0,-6.823731899E0,-1.480558991E0
3.620122604E0,3.434896946E0,-6.540780544E0,-2.247458696E0
3.630122604E0,3.370888948E0,-6.714260101E0,-3.536591768E0
3.640122604E0,3.079562664E0,-6.827321053E0,-6.148357868E0
3.650122604E0,3.012563705E0,-6.111867428E0,-8.754141808E0
3.660122604E0,3.397808075E-1,-4.674977303E0,-5.489135265E0
3.670122604E0,-4.654040039E-1,-4.032504559E0,-3.539582968E0
3.680122604E0,-4.013960063E-1,-3.489931822E0,-2.319243431E0
3.690122604E0,1.016949583E-2,-3.127419233E0,-2.023131609E0
3.700122604E0,3.738785386E-1,-2.221137524E0,-1.513460279E0
3.710122604E0,2.489732027E0,-1.088136077E0,-2.556132793E0
3.720122604E0,3.482753277E0,9.092725813E-2,-3.478565931E0
3.730122604E0,4.883750916E0,1.133599758E0,-3.155534744E0
3.740122604E0,6.329015732E0,1.625324726E0,-2.083550215E0
3.750122604E0,6.531807423E0,1.289731383E0,-1.146760225E0
3.760122604E0,3.241078377E0,-3.151945591E0,-4.785645381E-2
3.770122604E0,2.249851465E0,-5.703890800E0,-1.533201098E0
3.780122604E0,2.320439816E0,-8.636893272E0,-3.169891834E0
3.790122604E0,3.826721668E0,-1.310668564E1,-4.504488468E0
3.800122604E0,4.236492634E0,-1.988495445E1,-4.205984116E0
3.810122604E0,4.424927235E0,-2.831068039E1,3.023929596E0
3.820122604E0,1.541576028E0,-3.189572716E1,5.011168957E0
3.830122604E0,-9.625129104E-1,-3.020878792E1,3.608974695E0
3.840122604E0,-2.842075109E0,-2.402154732E1,1.984248161E0
3.850122604E0,-2.774477959E0,-1.922872353E1,8.799605370E-1
3.860122604E0,-2.608176708E0,-1.714756584E1,1.018744230E0
3.870122604E0,1.233500123E0,-1.590509224E1,-4.911268353E-1
3.880122604E0,3.467200041E0,-1.621735573E1,-1.016949583E-2
3.890122604E0,4.347160339E0,-1.712483406E1,-1.465603858E-1
3.900122604E0,5.385645390E0,-1.843729591E1,-2.923431158E0
3.910122604E0,7.046862602E0,-1.803350830E1,-4.432703972E0
3.920122604E0,5.233701229E0,-1.561556053E1,-4.161118507E0
3.930122604E0,4.572684288E0,-1.392862034E1,-4.559523582E0
3.940122604E0,5.442475319E0,-1.159920788E1,-4.283152580E0
3.950122604E0,6.470192432E0,-1.006899738E1,-3.900899172E0
3.960122604E0,5.342574596E0,-8.879166603E0,-3.049652576E0
3.970122604E0,1.119840980E0,-6.315257072E0,-2.566302299E0
3.980122604E0,-4.253242314E-1,-5.411368370E0,-2.719442844E0
3.990122604E0,-1.537388563E0,-4.831109047E0,-1.542174220E0
4.000122604E0,-2.084746838E0,-4.463212490E0,-2.392822690E-2
4.010122604E0,-2.132004976E0,-4.237090588E0,5.904290080E-1
4.020122604E0,-1.873580098E0,-3.534198999E0,7.441678643E-1
4.030122604E0,-1.721037745E0,-3.312862873E0,5.545366406E-1
4.040122604E0,-1.687538147E0,-2.753540754E0,6.634100676E-1
4.050122604E0,-1.459621787E0,-1.758724689E0,-8.973085321E-3
4.060122604E0,-1.026520967E0,-5.228317380E-1,-8.422735929E-1
4.070122604E0,-1.026520967E0,-5.228317380E-1,-8.422735929E-1
4.080122604E0,-1.397408366E0,-2.602194548E-1,7.094719410E-1
4.090122604E0,1.137787223E0,1.115653515E0,-9.902696609E0
4.100122604E0,1.137787223E0,1.115653515E0,-9.902696609E0
4.110122604E0,7.903493404E0,-3.471387386E0,5.215754986E0
4.120122604E0,4.581058979E0,-3.882354736E0,4.493721008E0
4.130122604E0,1.334596872E0,-3.122633457E0,3.174079180E0
4.140122604E0,-4.067798555E-1,-2.544766903E0,1.140179992E0
4.150122604E0,-1.010967612E0,-4.904688358E0,-4.558327198E-1
4.160122604E0,-6.197410822E-1,-8.351549149E0,-1.175474167E0
4.170122604E0,-8.356932998E-1,-1.338186073E1,8.039883971E-1
4.180122604E0,-1.499103427E0,-1.821117401E1,2.484348059E0
4.190122604E0,-2.712862730E0,-2.368236351E1,1.287338614E0
4.200122604E0,-4.134797573E0,-3.022314453E1,-2.642872572E0
4.210122604E0,-1.601994753E0,-2.515394974E1,-3.087937593E0
4.220122604E0,9.457631707E-1,-2.037189293E1,-2.050050735E0
4.230122604E0,2.958725214E0,-1.798505402E1,-6.394818425E-1
4.240122604E0,4.368695736E0,-1.612582970E1,1.237089276E0
4.250122604E0,6.472585201E0,-1.284168053E1,2.006979942E0
4.260122604E0,6.272186279E0,-1.130489063E1,1.544566989E0
4.270122604E0,5.343770981E0,-1.070249748E1,1.514058471E0
4.280122604E0,4.003192425E0,-1.058584690E1,1.934597135E0
4.290122604E0,2.622533560E0,-1.051047325E1,1.947159410E0
4.300122604E0,1.083350420E0,-1.073121166E1,1.699502230E0
4.310122604E0,1.083350420E0,-1.073121166E1,1.699502230E0
4.320122604E0,1.083350420E0,-1.073121166E1,1.699502230E0
4.330122604E0,1.148554832E-1,-1.240558910E1,-6.879364848E-1
4.340122604E0,5.126622319E-1,-1.285603809E1,-1.091127157E0
4.350122604E0,1.382453322E0,-1.287577820E1,-1.622333765E0
4.360122604E0,1.382453322E0,-1.287577820E1,-1.622333765E0
4.370122604E0,4.481158733E0,-9.729815483E0,-3.041875839E0
4.380122604E0,5.331807137E0,-8.056633949E0,-3.647259951E0
4.390122604E0,5.664409637E0,-6.732804775E0,-4.596014023E0
4.400122604E0,4.283750534E0,-6.236293793E0,-5.890531063E0
4.410122604E0,-2.991028363E-3,-6.349953175E0,-6.708278179E0
4.420122604E0,-1.006780148E0,-6.171687603E0,-5.863013744E0
4.430122604E0,-1.280160069E0,-5.714060307E0,-4.974080086E0
4.440122604E0,-7.214360237E-1,-5.178068161E0,-3.872185230E0
4.450122604E0,1.034895778E0,-4.431507587E0,-2.395813704E0
4.460122604E0,3.869792461E0,-2.534597397E0,-3.492922783E0
4.470122604E0,4.259224415E0,-2.087139606E0,-4.561318398E0
4.480122604E0,3.540181160E0,-1.448255897E0,-3.473780155E0
4.490122604E0,3.104089260E0,-1.231705427E0,8.494520187E-2
4.500122604E0,3.559921980E0,-1.586441398E0,2.525624275E0
4.510122604E0,4.478765965E0,-2.245065928E0,2.387438774E0
4.520122604E0,4.955535889E0,-2.059023857E0,1.293918848E0
4.530122604E0,5.006382942E0,-2.781058073E0,1.252044439E0
4.540122604E0,4.504488468E0,-4.247858524E0,1.947159410E0
4.550122604E0,4.471587181E0,-6.874579430E0,1.777867198E0
4.560122604E0,5.872584820E0,-1.522373581E1,1.021137118E0
4.570122604E0,7.466204643E0,-2.114357948E1,1.820339799E0
4.580122604E0,6.494120598E0,-2.427458763E1,6.863811970E0
4.590122604E0,1.244267821E0,-2.716990280E1,1.050688457E1
4.600122604E0,-4.615755081E0,-2.871686363E1,5.603990555E0
4.610122604E0,-5.787041664E0,-2.542613411E1,-3.346362352E0
4.620122604E0,-2.675773859E0,-2.127578163E1,-7.348956585E0
4.630122604E0,-4.013361931E0,-1.948834419E1,-3.708875179E0
4.640122604E0,-4.231108665E0,-1.721576118E1,-2.556132793E0
4.650122604E0,-3.701098442E0,-1.583390522E1,-1.186840057E0
4.660122604E0,-3.555136204E0,-1.581356621E1,1.523629785E0
4.670122604E0,-3.555136204E0,-1.581356621E1,1.523629785E0
4.680122604E0,1.341177106E0,-1.287817192E1,6.323033571E-1
4.690122604E0,2.598605394E0,-1.243669605E1,-2.213360965E-1
4.700122604E0,3.046063185E0,-1.210947704E1,-1.335793257E0
4.710122604E0,3.470789194E0,-1.154596710E1,-2.007578135E0
4.720122604E0,2.375474691E0,-1.081077290E1,-2.462812662E0
4.720122604E0,3.470789194E0,-1.154596710E1,-2.007578135E0
4.740122604E0,1.562513232E0,-8.889934540E0,-2.261815548E0
4.750122604E0,9.996016622E-1,-7.877770424E0,-1.935793519E0
4.760122604E0,8.368897438E-1,-6.889534473E0,-1.846062660E0
4.770122604E0,2.841476798E-1,-5.477769375E0,-1.320239902E0
4.780122604E0,5.491527915E-1,-4.403990269E0,-9.822536707E-1
4.790122604E0,1.493121386E0,-2.784647465E0,-3.774677813E-1
4.800122604E0,2.669193745E0,-1.387238979E0,3.930211067E-1
4.810122604E0,3.097508907E0,-1.248455167E0,9.415757060E-1
4.820122604E0,3.977469444E0,-5.395814776E-1,2.206780672E0
4.830122604E0,4.241876125E0,-8.560323119E-1,1.220339537E0
4.840122604E0,4.954339504E0,-1.575673699E0,-9.768698215E-1
4.850122604E0,5.033900738E0,-2.220539331E0,-1.302293777E0
4.860122604E0,4.301098824E0,-2.146960020E0,-1.585244983E-1
4.870122604E0,2.978466034E0,-2.143969059E0,3.577269912E-1
4.880122604E0,3.080759048E-1,-2.712862730E0,-1.936391711E0
4.890122604E0,-5.072783828E-1,-4.053441525E0,-2.782852650E0
4.900122604E0,-9.086744189E-1,-6.528218269E0,-3.723830223E0
4.910122604E0,-1.907079697E0,-1.083769226E1,-3.314059258E0
4.920122604E0,-3.265006542E0,-1.517228985E1,1.405783296E-1
4.930122604E0,-4.974080086E0,-2.144985962E1,2.222932339E0
4.940122604E0,-4.974080086E0,-2.144985962E1,2.222932339E0
4.950122604E0,-6.087340832E0,-2.604766846E1,2.012962103E0
4.960122604E0,-4.999803066E0,-2.253560448E1,9.595218897E-1
4.970122604E0,-2.477767944E0,-1.748734665E1,5.497509837E-1
4.980122604E0,7.399803996E-1,-1.094536877E1,1.802991867E0
4.990122604E0,1.426720500E0,-9.360123634E0,3.105285645E0
5.000122604E0,2.301297188E0,-9.116056442E0,4.894518852E0
5.010122604E0,3.512065411E0,-8.998209953E0,6.358327866E0
5.020122604E0,4.603192329E0,-8.894122124E0,7.835297585E0
5.030122604E0,4.133601189E0,-1.014437199E1,3.617947817E0
5.040122604E0,2.843271494E0,-1.112124157E1,1.351346612E0
5.050122604E0,1.423729420E0,-1.225603771E1,4.366901144E-2
5.060122604E0,4.558327198E-1,-1.323230934E1,-1.032503009E0
5.070122604E0,-4.510470629E-1,-1.426361561E1,-1.551147223E0
5.080122604E0,-6.017948985E-1,-1.545225048E1,-3.206980467E0
5.090122604E0,-7.178468257E-2,-1.479003716E1,-3.674777269E0
5.100122604E0,4.971089065E-1,-1.343510056E1,-3.637090445E0
5.110122604E0,1.253839016E0,-1.182233810E1,-3.000001431E0
5.120122604E0,2.281556368E0,-1.054816055E1,-2.394019127E0
5.130122604E0,3.331407309E0,-9.655039787E0,-2.464607239E0
5.140122604E0,3.619144201E0,-9.284749985E0,-3.236292601E0
5.150122604E0,3.723830223E0,-8.772686005E0,-4.158725739E0
5.160122604E0,3.723830223E0,-8.772686005E0,-4.158725739E0
5.170122604E0,2.844467878E0,-8.120043755E0,-6.464210510E0
5.180122604E0,2.452044964E0,-7.158128738E0,-6.531807423E0
5.190122604E0,2.452044964E0,-7.158128738E0,-6.531807423E0
5.200122604E0,-8.913264424E-2,-5.225924492E0,-1.408774376E0
5.210122604E0,1.148554832E-1,-4.876572609E0,-2.191825628E0
5.220122604E0,1.785045743E0,-4.063013077E0,-3.376870871E0
5.230122604E0,3.348157167E0,-3.072384357E0,-4.063611031E0
5.240122604E0,3.348157167E0,-3.072384357E0,-4.063611031E0
5.250122604E0,3.705883980E0,-2.790629387E0,-3.563511133E0
5.260122604E0,3.900300980E0,-2.292922258E0,-2.668595552E0
5.270122604E0,3.879363775E0,-2.392224550E0,-1.637887120E0
5.280122604E0,3.503690481E0,-3.612564087E0,-9.194421172E-1
5.290122604E0,2.498106956E0,-7.917252064E0,6.538388133E-1
5.300122604E0,1.845464468E0,-9.749555588E0,1.535593987E0
5.310122604E0,1.339980721E0,-1.177448177E1,2.162513494E0
5.320122604E0,3.011965513E0,-1.486541080E1,1.667797327E0
5.330122604E0,4.222135544E0,-1.850609016E1,2.997010469E0
5.340122604E0,1.334596872E0,-2.299143600E1,8.949156761E0
5.350122604E0,-2.118246317E0,-2.499004173E1,8.211568832E0
5.360122604E0,-4.280161381E0,-2.553201675E1,1.701895118E0
5.370122604E0,-2.913859844E0,-2.246022987E1,-4.124628067E0
5.380122604E0,-2.160120726E0,-1.980180359E1,-5.515456200E0
5.390122604E0,-2.065006018E0,-1.707996750E1,-1.998605132E0
5.400122604E0,-2.065006018E0,-1.707996750E1,-1.998605132E0
5.410122604E0,4.012165546E0,-1.684068489E1,-3.589234054E-1
5.420122604E0,5.611168861E0,-1.661456490E1,-6.155536175E-1
5.430122604E0,6.415755749E0,-1.535534096E1,-3.415754437E-1
5.440122604E0,6.415755749E0,-1.535534096E1,-3.415754437E-1
5.450122604E0,4.616951466E0,-1.185284710E1,-1.149153113E0
5.460122604E0,4.616951466E0,-1.185284710E1,-1.149153113E0
5.470122604E0,3.305086374E0,-9.496515274E0,-1.459621787E0
5.480122604E0,3.413959742E0,-8.212167740E0,-1.988435626E0
5.490122604E0,3.076571703E0,-7.326224804E0,-2.225923300E0
5.500122604E0,1.207179070E0,-6.343372822E0,-1.390229940E0
5.510122604E0,-6.616154313E-1,-5.646463394E0,-5.593222976E-1
5.520122604E0,-1.560120344E0,-4.615755081E0,-1.015753269E0
5.530122604E0,-1.693520188E0,-3.585644722E0,-1.634297848E0
5.540122604E0,-1.319641709E0,-2.848057270E0,-1.504487276E0
5.550122604E0,2.560320199E-1,-1.452443361E0,1.196411345E-2
5.560122604E0,1.071984529E0,-9.164510965E-1,1.066600680E0
5.570122604E0,1.482353687E0,-5.892325640E-1,1.789233088E0
5.580122604E0,1.482353687E0,-5.892325640E-1,1.789233088E0
5.590122604E0,1.482353687E0,-5.892325640E-1,1.789233088E0
5.600122604E0,1.482353687E0,-5.892325640E-1,1.789233088E0
5.610122604E0,1.482353687E0,-5.892325640E-1,1.789233088E0
5.620122604E0,1.547558069E0,-4.037888348E-1,1.928016901E0
5.630122604E0,4.175475597E0,-3.736990690E0,1.005583763E0
5.640122604E0,1.753939033E0,-3.940979004E0,-3.601198196E-1
5.650122604E0,4.067798331E-2,-4.390231133E0,-1.394417405E0
5.660122604E0,-1.174875975E0,-5.414359570E0,-2.320439816E0
5.670122604E0,-2.163709879E0,-7.135995388E0,-1.937588096E0
5.680122604E0,-3.263810158E0,-1.389153194E1,1.410568953E0
5.690122604E0,-3.634099483E0,-1.723191261E1,2.124826431E0
5.700122604E0,-4.220340729E0,-1.994357872E1,2.464607239E0
5.710122604E0,-5.436492920E0,-2.380260277E1,3.316452265E0
5.720122604E0,-5.992226124E0,-2.659442902E1,1.965703845E0
5.730122604E0,-3.446262836E0,-2.036292076E1,-7.914260626E-1
5.740122604E0,-1.289731383E0,-1.698844337E1,2.153540403E-1
5.750122604E0,1.197607756E0,-1.525005722E1,1.136590719E0
5.760122604E0,3.149552822E0,-1.376172161E1,2.182852507E0
5.770122604E0,3.963112593E0,-1.279083347E1,3.058625460E0
5.780122604E0,5.273781300E0,-1.053739262E1,1.100698471E0
5.790122604E0,3.844069481E0,-1.015573788E1,1.116850019E0
5.800122604E0,2.099701881E0,-1.100100231E1,1.329811215E0
5.810122604E0,9.678967595E-1,-1.226321602E1,1.800599098E0
5.820122604E0,4.217349887E-1,-1.255753326E1,1.336989641E0
5.830122604E0,-2.033899277E-1,-1.281177044E1,-9.080761671E-1
5.840122604E0,2.931207791E-2,-1.357567883E1,-1.974676847E0
5.850122604E0,9.900303483E-1,-1.402672672E1,-2.423929453E0
5.860122604E0,1.602592945E0,-1.368754387E1,-2.209173441E0
5.870122604E0,2.118246317E0,-1.277348518E1,-2.119442701E0
5.880122604E0,3.350549936E0,-9.556335449E0,-2.161317110E0
5.890122604E0,3.871587038E0,-8.116454124E0,-2.011765718E0
5.900122604E0,4.076771736E0,-7.595417500E0,-1.825723648E0
5.910122604E0,4.172484398E0,-7.313064098E0,-1.866401672E0
5.920122604E0,4.224528313E0,-6.086742401E0,-1.992623091E0
5.930122604E0,3.832105398E0,-5.359922886E0,-2.003988981E0
5.940122604E0,9.505487680E-1,-5.839683533E0,-3.631706476E0
5.950122604E0,-5.234299302E-1,-6.122036934E0,-4.620540619E0
5.960122604E0,-1.663609982E0,-6.302096844E0,-5.799603939E0
5.970122604E0,-1.599601984E0,-5.932405472E0,-7.525427341E0
5.980122604E0,-3.984049559E-1,-5.239683151E0,-9.455837250E0
5.990122604E0,9.110672474E-1,-4.637290478E0,-6.865606308E0
6.000122604E0,9.930213690E-1,-4.007379532E0,-3.547957659E0
6.010122604E0,2.111067772E0,-3.214159012E0,-9.577272534E-1
6.020122604E0,2.825325251E0,-3.168097258E0,1.752742529E-1
6.030122604E0,3.251846075E0,-2.703291416E0,9.176474810E-1
6.040122604E0,4.872385025E0,-1.531406522E0,3.502494097E0
6.050122604E0,5.158327579E0,-1.730010748E0,3.105285645E0
6.060122604E0,5.501697540E0,-1.844866276E0,2.473580360E0
6.070122604E0,5.879165173E0,-2.182254314E0,2.103889227E0
6.080122604E0,4.961517811E0,-3.952344894E0,1.922034740E0
6.090122604E0,3.859622955E0,-1.073240757E1,1.543968797E0
6.100122604E0,4.609772682E0,-1.445145226E1,3.213560820E0
6.110122604E0,5.427519798E0,-1.870708656E1,4.942375183E0
6.120122604E0,5.023731232E0,-2.244706917E1,8.254639626E0
6.130122604E0,5.335994363E-1,-2.415853500E1,1.341715431E1
6.140122604E0,-3.698705673E0,-2.561217499E1,-1.692323804E0
6.150122604E0,-2.762513638E0,-2.477050018E1,-1.055653572E1
6.160122604E0,-3.657429457E0,-2.426262283E1,-1.073838997E1
6.170122604E0,-4.909473896E0,-2.299921227E1,-7.105486870E0
6.180122604E0,-5.292325497E0,-2.062314034E1,-3.716053486E0
6.190122604E0,-3.415754318E0,-1.854138374E1,-1.933400750E0
6.200122604E0,-1.789233088E0,-1.866102600E1,1.284945726E0
6.210122604E0,2.225325108E-1,-1.688196182E1,1.007378340E0
6.220122604E0,3.784847260E0,-1.446222019E1,-1.243071318E0
6.230122604E0,5.398806095E0,-1.378445339E1,-2.304886341E0
6.240122604E0,5.454439163E0,-1.337109280E1,-3.279363394E0
6.250122604E0,5.712863922E0,-1.203529930E1,-2.599203587E0
6.260122604E0,5.010570526E0,-1.124447155E1,-2.099103689E0
6.270122604E0,3.501895905E0,-1.013838959E1,-3.199203968E0
6.280122604E0,2.860021353E0,-8.566305161E0,-3.631706476E0
6.290122604E0,2.385644197E0,-7.598408222E0,-3.915256023E0
6.300122604E0,1.966302037E0,-5.932405472E0,-2.502892494E0
6.310122604E0,1.447059512E0,-4.807778835E0,-1.070788145E0
6.320122604E0,1.185045362E0,-3.668795347E0,-2.841476798E-1
6.330122604E0,8.560323119E-1,-2.411965132E0,6.705885530E-1
6.340122604E0,1.448255897E0,-7.082754970E-1,2.347717857E1
6.350122604E0,3.972085714E-1,-6.478567123E-1,-1.568196106E1
6.360122604E0,-1.204786181E0,-2.270788670E0,-2.490210533E1
6.370122604E0,-9.349954724E-1,1.514058471E0,-1.111944675E1
6.380122604E0,-1.659422517E0,8.470591903E-1,-4.144967079E0
6.390122604E0,1.141376376E0,-9.625129104E-1,1.256231815E-1
6.400122604E0,6.576673031E0,-1.615155302E-2,2.493919373E0
6.410122604E0,4.153940201E0,-1.462014675E0,2.997608662E0
6.420122604E0,2.266601324E0,-1.263410330E0,8.656035662E-1
6.430122604E0,7.914260626E-1,-7.680960894E-1,-4.492524564E-1
6.440122604E0,-5.766702294E-1,-4.139583111E-1,-6.484549642E-1
6.450122604E0,-1.241276741E0,-2.524427772E-1,-5.395814776E-1
6.460122604E0,-8.309076428E-1,-2.863610506E0,-1.517647743E0
6.470122604E0,-8.691928387E-1,-5.704489231E0,-1.600200176E0
6.480122604E0,-2.835494757E0,-1.813580132E1,1.537986755E0
6.490122604E0,-4.301696777E0,-2.659502792E1,5.654838085E0
6.500122604E0,-6.824330330E0,-3.677170181E1,6.647261143E0
6.510122604E0,-9.363713264E0,-4.251088715E1,5.894120216E0
6.520122604E0,-6.508477688E0,-3.065265656E1,3.265604734E0
6.530122604E0,-1.650449395E0,-1.305583858E1,1.227517962E0
6.540122604E0,2.811566591E-1,-1.030648518E1,6.161518097E-1
6.550122604E0,1.751546144E0,-8.386244774E0,7.764709592E-1
6.560122604E0,2.988037348E0,-7.552944660E0,1.140778184E0
6.570122604E0,3.970889091E0,-7.514659405E0,1.520040631E0
6.580122604E0,4.066003799E0,-9.251849174E0,1.554736495E0
6.590122604E0,3.583251953E0,-1.096570778E1,4.749752879E-1
6.600122604E0,3.583251953E0,-1.096570778E1,4.749752879E-1
6.610122604E0,2.835494757E0,-1.253121185E1,-8.446664214E-1
6.620122604E0,2.525624275E0,-1.289372444E1,-8.799605370E-1
6.630122604E0,2.377269268E0,-1.322991657E1,4.767699242E-1
6.640122604E0,2.950948477E0,-1.471705532E1,2.470589399E0
6.650122604E0,2.830111027E0,-1.427857113E1,3.675375462E0
6.660122604E0,2.715853691E0,-1.361097336E1,2.231307030E0
6.670122604E0,2.473580360E0,-1.252403355E1,5.659025311E-1
6.680122604E0,2.517249346E0,-1.111167049E1,-1.027717352E0
6.690122604E0,1.688136339E0,-1.074616623E1,-4.724628448E0
6.700122604E0,7.668996453E-1,-1.048176003E1,-6.931408882E0
6.710122604E0,-1.645065546E-1,-9.294321060E0,-9.041280746E0
6.720122604E0,-1.517647743E0,-8.885149002E0,-9.556933403E0
6.730122604E0,-1.765304923E0,-8.391629219E0,-8.539983749E0
6.740122604E0,-1.765304923E0,-8.391629219E0,-8.539983749E0
6.750122604E0,-1.765304923E0,-8.391629219E0,-8.539983749E0
6.760122604E0,1.421336651E0,-4.776073933E0,-2.368894339E0
6.770122604E0,2.659024239E0,-3.447459221E0,-2.047059774E0
6.780122604E0,3.427718401E0,-2.212762833E0,-1.896311998E0
6.790122604E0,4.580460548E0,-7.998009920E-1,-3.120240688E0
6.800122604E0,5.675177097E0,-4.372883439E-1,-3.333800077E0
6.810122604E0,5.968895912E0,-5.623133183E-1,-2.417349100E0
6.820122604E0,5.818148136E0,-6.753742099E-1,-1.826321840E0
6.830122604E0,5.409573555E0,-9.900303483E-1,-1.503290772E0
6.840122604E0,4.323830605E0,-2.967698336E0,-1.292722464E0
6.850122604E0,3.529413462E0,-4.348955154E0,-1.460818172E0
6.860122604E0,2.461018085E0,-6.437889099E0,-1.853839397E0
6.870122604E0,1.523031592E0,-8.418548584E0,-1.849651933E0
6.880122604E0,1.058225870E0,-1.052363396E1,-1.668993831E0
6.890122604E0,4.620540619E0,-2.109871292E1,3.180659533E0
6.900122604E0,2.592025042E0,-2.569412994E1,8.469993591E0
6.910122604E0,-9.978070259E-1,-2.749413109E1,1.149332523E1
6.920122604E0,-7.298109055E0,-2.924806976E1,1.045842934E1
6.930122604E0,-9.650253296E0,-2.690310287E1,2.443670034E0
6.940122604E0,-7.152146816E0,-2.294956207E1,-5.286343575E0
6.950122604E0,-2.181057930E0,-2.045205307E1,-8.045866013E0
6.960122604E0,-1.978864312E0,-2.043291092E1,-4.594219685E0
6.970122604E0,-1.056431174E0,-1.975813484E1,-3.964308977E0
6.980122604E0,1.383649707E0,-1.813161278E1,-2.462214470E0
6.990122604E0,4.477569580E0,-1.631605911E1,-5.437689424E-1
7.000122604E0,4.477569580E0,-1.631605911E1,-5.437689424E-1
7.010122604E0,1.020897770E1,-1.447179127E1,-1.811964989E0
7.020122604E0,7.138986588E0,-1.433540058E1,-1.640878081E0
7.030122604E0,5.705087185E0,-1.286321640E1,-2.106880426E0
7.040122604E0,4.767100811E0,-1.153998566E1,-2.475973129E0
7.050122604E0,2.446661234E0,-8.810373306E0,-1.688734531E0
7.060122604E0,2.446661234E0,-8.810373306E0,-1.688734531E0
7.070122604E0,2.446661234E0,-8.810373306E0,-1.688734531E0
7.080122604E0,-9.421738982E-1,-4.457828522E0,-2.121835470E0
7.090122604E0,-1.756331801E0,-3.445066452E0,-1.986641049E0
7.100122604E0,-1.756331801E0,-3.445066452E0,-1.986641049E0
7.110122604E0,-2.234298229E0,-2.189432621E0,-4.707878530E-1
7.120122604E0,-1.925624013E0,-1.825723648E0,7.274180651E-1
7.130122604E0,-1.465005636E0,-1.087537885E0,1.388435364E0
7.140122604E0,-8.907282352E-1,-2.787638307E-1,1.133599758E0
7.150122604E0,1.017547846E0,1.182054400E0,2.991028316E-2
7.160122604E0,2.340180635E0,2.210369825E0,3.708875179E-1
7.170122604E0,3.875774384E0,2.732005358E0,4.612165689E-1
7.180122604E0,5.407180786E0,2.110469580E0,-3.044866920E-1
7.190122604E0,6.372684956E0,6.861419082E-1,-5.078766346E-1
7.200122604E0,2.432902336E0,-1.357926846E0,-2.190030813E0
7.210122604E0,6.017948985E-1,-1.491924882E0,-4.222733974E0
7.220122604E0,-1.040279627E0,-1.845464468E0,-4.663012981E0
7.230122604E0,-2.203789711E0,-2.548954248E0,-4.475176334E0
7.240122604E0,-3.297907829E0,-4.211966038E0,-3.623331785E0
7.250122604E0,-4.071387768E0,-8.260024071E0,-2.917448997E0
7.260122604E0,-4.071387768E0,-8.260024071E0,-2.917448997E0
7.270122604E0,-4.071387768E0,-8.260024071E0,-2.917448997E0
7.280122604E0,-4.071387768E0,-8.260024071E0,-2.917448997E0
7.290122604E0,-6.057430744E0,-3.523790359E1,1.644467354E0
7.300122604E0,-3.570091486E0,-2.762274551E1,7.537391037E-2
7.310122604E0,-3.570091486E0,-2.762274551E1,7.537391037E-2
7.320122604E0,9.463613629E-1,-1.117986584E1,-5.048855543E-1
7.330122604E0,2.186441660E0,-9.530014038E0,6.275177598E-1
7.340122604E0,3.454637766E0,-8.839086533E0,2.053640127E0
7.350122604E0,4.328616142E0,-8.581858635E0,3.334996462E0
7.360122604E0,4.328616142E0,-8.581858635E0,3.334996462E0
7.370122604E0,6.319444656E0,-1.074138069E1,6.476772785E0
7.380122604E0,5.851049423E0,-1.185882950E1,5.912066460E0
7.390122604E0,4.759922504E0,-1.285424328E1,4.989035130E0
7.400122604E0,3.167499065E0,-1.414277840E1,3.165704250E0
7.410122604E0,1.935793519E0,-1.759861183E1,1.478764415E0
7.420122604E0,1.343569875E0,-1.935434532E1,9.762716293E-1
7.430122604E0,1.341775298E0,-1.957628059E1,-5.461617708E-1
7.440122604E0,1.581655741E0,-1.749332809E1,-2.193620205E0
7.450122604E0,2.036292076E0,-1.490549088E1,-3.074777126E0
7.460122604E0,2.036292076E0,-1.490549088E1,-3.074777126E0
7.470122604E0,4.658825874E0,-9.553344727E0,-1.024307537E1
7.480122604E0,4.365106583E0,-8.351549149E0,-1.144965649E1
7.490122604E0,3.497708559E0,-7.450651646E0,-1.074915791E1
7.500122604E0,2.411965132E0,-6.196812630E0,-8.322834969E0
7.510122604E0,1.235294700E0,-5.194219589E0,-5.709873199E0
7.520122604E0,1.235294700E0,-5.194219589E0,-5.709873199E0
7.530122604E0,2.570489645E0,-4.801198483E0,-4.049852192E-1
7.540122604E0,2.952144861E0,-4.196412563E0,-1.573280841E-1
7.550122604E0,2.752344131E0,-3.496512175E0,-1.182652593E0
7.560122604E0,2.237887383E0,-2.358126640E0,-1.995614052E0
7.570122604E0,2.537588358E0,-7.621139884E-1,-2.916252613E0
7.580122604E0,3.572484255E0,2.249253243E-1,-3.269792080E0
7.590122604E0,3.431307554E0,1.429711580E-1,-2.768495798E0
7.600122604E0,2.685943365E0,-1.489532143E-1,-2.137987137E0
7.610122604E0,2.743371248E0,-3.870390654E-1,-2.121237278E0
7.620122604E0,2.743371248E0,-3.870390654E-1,-2.121237278E0
7.630122604E0,2.105085611E0,-4.229313850E0,-4.725824669E-2
7.640122604E0,2.044068813E0,-5.694917679E0,1.322034448E-1
7.650122604E0,2.126022816E0,-6.790830612E0,-8.554341197E-1
7.660122604E0,2.172084808E0,-8.673383713E0,-2.825325251E0
7.670122604E0,6.593422890E0,-2.040240288E1,-1.689931035E0
7.680122604E0,3.074178934E0,-2.155335045E1,2.881556749E0
7.690122604E0,-7.298108935E-2,-2.239502525E1,7.939983845E0
7.700122604E0,-4.310669899E0,-2.495474815E1,1.002413273E1
7.710122604E0,-9.858428955E0,-2.840160751E1,8.956335068E0
7.720122604E0,-1.117268753E1,-2.642513657E1,-8.231309652E-1
7.730122604E0,-8.636295319E0,-2.183869362E1,-5.943173409E0
7.740122604E0,-5.254638672E0,-1.971805573E1,-9.145368576E0
7.750122604E0,-2.712264538E0,-2.000698853E1,-8.181658745E0
7.760122604E0,-1.134796143E0,-2.062912178E1,-4.855635166E0
7.770122604E0,2.937788010E0,-1.940100670E1,-4.450650215E-1
7.780122604E0,6.108277798E0,-1.704407501E1,-1.056431174E0
7.790122604E0,6.108277798E0,-1.704407501E1,-1.056431174E0
7.800122604E0,9.965508461E0,-1.472961807E1,3.104687333E-1
7.810122604E0,5.926423550E0,-1.486122322E1,-8.249256015E-1
7.820122604E0,3.799802303E0,-1.244746304E1,-1.931606054E0
7.830122604E0,3.799802303E0,-1.244746304E1,-1.931606054E0
7.840122604E0,3.799802303E0,-1.244746304E1,-1.931606054E0
7.850122604E0,7.657032609E-1,-6.635895252E0,-1.170688510E0
7.860122604E0,-4.151547253E-1,-4.632504463E0,-1.096511006E0
7.870122604E0,-1.505085468E0,-3.267997503E0,-1.286142230E0
7.880122604E0,-3.756731510E0,-2.041675806E0,-5.018945336E-1
7.890122604E0,-4.457230568E0,-1.805982947E0,5.802594870E-2
7.900122604E0,-4.294518471E0,-1.669592023E0,-1.627119333E-1
7.910122604E0,-3.387638569E0,-9.936196208E-1,1.136590764E-1
7.920122604E0,-2.227119684E0,3.230310604E-2,1.046261668E0
7.930122604E0,4.666004181E-1,1.956132531E0,2.358724833E0
7.940122604E0,1.296311617E0,2.614158630E0,2.428116798E0
7.950122604E0,1.296311617E0,2.614158630E0,2.428116798E0
7.960122604E0,1.296311617E0,2.614158630E0,2.428116798E0
7.970122604E0,1.296311617E0,2.614158630E0,2.428116798E0
7.980122604E0,1.296311617E0,2.614158630E0,2.428116798E0
7.980122604E0,1.296311617E0,2.614158630E0,2.428116798E0
8.000122604E0,1.834098577E0,2.476571321E0,1.539781332E0
8.010122604E0,-3.822534084E-1,-1.611566067E0,-1.910070658E0
8.020122604E0,-8.195417523E-1,-1.729412556E0,-2.989831924E0
8.030122604E0,-1.220339537E0,-3.064009428E0,-3.148356438E0
8.040122604E0,-1.643869162E0,-5.538786411E0,-2.442473650E0
8.050122604E0,-1.092921734E0,-1.016231823E1,-2.986840963E0
8.060122604E0,-2.491526604E0,-2.441576385E1,3.046063185E0
8.070122604E0,-4.569693089E0,-2.936412048E1,2.738585472E0
8.080122604E0,-7.478767395E0,-3.541138077E1,2.803789854E0
8.090122604E0,-8.322237015E0,-3.655993652E1,1.150947690E0
8.100122604E0,-4.710271358E0,-2.728296471E1,-9.355936646E-1
8.110122604E0,-1.621137410E-1,-1.449093437E1,4.797609448E-1
8.120122604E0,1.950748682E0,-1.248574829E1,7.447660565E-1
8.130122604E0,3.748954773E0,-1.065882874E1,1.185045362E0
8.140122604E0,5.169095039E0,-8.851649284E0,1.676172256E0
8.150122604E0,6.049055576E0,-7.633104324E0,2.070389748E0
8.160122604E0,5.297709465E0,-8.276773453E0,4.591228485E0
8.170122604E0,3.784847260E0,-9.367900848E0,5.919245243E0
8.180122604E0,2.666202545E0,-1.055952644E1,5.773283005E0
8.190122604E0,2.035095692E0,-1.277767277E1,5.292325497E0
8.200122604E0,1.547558069E0,-1.600200081E1,4.302893162E0
8.210122604E0,2.761317253E0,-1.799043655E1,3.260818958E0
8.220122604E0,1.770688772E0,-1.765005875E1,3.038884640E0
8.230122604E0,1.901695848E0,-1.625324821E1,1.678565025E0
8.240122604E0,2.906083107E0,-1.383230972E1,-3.086741269E-1
8.250122604E0,3.648456335E0,-1.105603695E1,-1.877767563E0
8.260122604E0,3.913461447E0,-9.807581902E0,-3.171088219E0
8.270122604E0,3.047857761E0,-9.022735596E0,-5.602196217E0
8.280122604E0,1.875374794E0,-7.595417500E0,-5.918646812E0
8.290122604E0,-4.504488707E-1,-7.017550468E0,-9.835697174E0
8.300122604E0,-2.353341103E0,-6.149554253E0,-1.793480301E1
8.310122604E0,-1.909472466E0,-5.898906231E0,-2.114956093E1
8.320122604E0,3.072982550E0,-4.018745422E0,-3.722035646E0
8.330122604E0,2.711666346E0,-4.096512318E0,3.152543783E0
8.340122604E0,2.930609465E0,-3.672982693E0,2.801397085E0
8.350122604E0,4.582255363E0,-2.944966555E0,1.485942841E0
8.360122604E0,4.557130814E0,-1.931606054E0,9.367900491E-1
8.370122604E0,6.012565136E0,-3.577269912E-1,-3.361915827E0
8.380122604E0,6.387639999E0,1.485942841E0,-4.201198578E0
8.390122604E0,5.089533806E0,1.059422255E0,-5.841478348E0
8.400122604E0,4.003790379E0,-1.836491376E-1,-6.198606968E0
8.410122604E0,3.369692564E0,-1.671984792E0,-5.501697540E0
8.420122604E0,2.420340061E0,-4.980062008E0,-2.394617319E0
8.430122604E0,3.241676569E0,-6.789036274E0,-8.321040869E-1
8.440122604E0,3.262613773E0,-8.450253487E0,-0.000000000E0
8.450122604E0,2.397010088E0,-9.639486313E0,-4.372883439E-1
8.460122604E0,3.342773199E0,-1.406202030E1,-2.520838737E0
8.470122604E0,1.904088616E0,-2.418126678E1,3.649054527E0
8.480122604E0,-2.922234535E0,-2.676910591E1,1.036092186E1
8.490122604E0,-7.877171993E0,-2.922832870E1,1.186301613E1
8.500122604E0,-1.492882061E1,-3.141536903E1,6.358327866E0
8.510122604E0,-1.616052628E1,-2.912005424E1,-3.499503136E-1
8.520122604E0,-7.309474945E0,-2.049811554E1,-6.351747513E0
8.530122604E0,-4.600201607E0,-1.962533379E1,-7.030112743E0
8.540122604E0,-1.060618639E0,-1.950808525E1,-6.250052929E0
8.550122604E0,6.604190469E-1,-2.035813522E1,-4.045664787E0
8.560122604E0,4.719842672E-1,-2.019183350E1,-2.326421738E0
8.570122604E0,2.550150633E0,-1.846660805E1,-9.990034252E-2
8.580122604E0,1.138923740E1,-1.534158230E1,-4.821537733E-1
8.590122604E0,6.360122681E0,-1.607558060E1,-1.322034448E-1
8.600122604E0,4.466801643E0,-1.354277802E1,-2.067398787E0
8.610122604E0,4.667798996E0,-9.837491989E0,-3.661616802E0
8.620122604E0,3.809971809E0,-8.620143890E0,-1.785045743E0
8.630122604E0,6.053841114E-1,-6.857829571E0,-1.661815286E0
8.640122604E0,-1.022931710E-1,-5.023132801E0,-1.274776220E0
8.650122604E0,-8.632107973E-1,-3.759722471E0,-1.379462242E0
8.660122604E0,-1.494915962E0,-2.564507723E0,-1.187438250E0
8.670122604E0,-2.263610125E0,-1.753340840E0,-2.231307179E-1
8.680122604E0,-3.855435371E0,-1.281356573E0,-5.862415582E-2
8.690122604E0,-4.152743816E0,-9.320043921E-1,-1.387837082E-1
8.700122604E0,-4.015156269E0,-1.920240223E-1,-5.742774606E-1
8.710122604E0,-3.326621771E0,8.321040869E-1,-5.264210105E-1
8.720122604E0,-1.767099500E0,2.073979139E0,1.244267747E-1
8.730122604E0,2.691925466E-1,2.783450842E0,1.794617027E-1
8.740122604E0,1.157527924E0,3.080160856E0,-4.235295951E-1
8.750122604E0,3.627519131E0,2.154736757E0,-2.090728760E0
8.760122604E0,7.650452137E0,1.794616925E-3,-1.672582984E0
8.770122604E0,9.048459053E0,-2.033301115E0,1.638485312E0
8.780122604E0,5.060820103E0,-3.871587038E0,1.213759303E0
8.790122604E0,2.940778971E0,-3.547359467E0,3.601198196E-1
8.800122604E0,1.326820135E0,-2.799004316E0,-9.002995491E-1
8.810122604E0,1.387837082E-1,-2.313261271E0,-2.108675003E0
8.820122604E0,-8.093722463E-1,-2.996412039E0,-3.227319479E0
8.830122604E0,-3.364906788E0,-1.080000496E1,-3.875774384E0
8.840122604E0,-5.233103275E0,-1.849651909E1,4.971089065E-1
8.850122604E0,-5.697310925E0,-2.514976311E1,1.348355532E0
8.860122604E0,-6.638288021E0,-3.005564690E1,5.234299302E-1
8.870122604E0,-9.031708717E0,-3.711925888E1,1.776670814E-1
8.880122604E0,-9.906285286E0,-3.694458389E1,4.624129832E-1
8.890122604E0,-4.235296249E0,-1.939442635E1,-4.097708762E-1
8.900122604E0,-2.012962103E0,-1.538345718E1,-1.746760458E-1
8.910122604E0,1.758724600E-1,-1.300798225E1,-9.810572863E-2
8.920122604E0,2.547159672E0,-1.161535931E1,1.734796464E-1
8.930122604E0,4.862215519E0,-1.054038334E1,7.734799385E-1
8.940122604E0,7.549355507E0,-8.612964630E0,1.336989641E0
8.950122604E0,7.107879639E0,-9.288937569E0,3.016751051E0
8.960122604E0,6.391229153E0,-9.815957069E0,5.993422508E0
8.970122604E0,6.119045734E0,-1.044227791E1,8.880961418E0
8.980122604E0,5.581258774E0,-1.132104206E1,1.007497978E1
8.990122604E0,3.633501291E0,-1.556471348E1,8.087141991E0
9.000122604E0,3.357728481E0,-1.649432564E1,5.963512421E0
9.010122604E0,2.904886723E0,-1.646740532E1,3.864408493E0
9.020122604E0,2.973680258E0,-1.644706726E1,2.150549412E0
9.030122604E0,3.598805189E0,-1.604925919E1,1.389631748E0
9.040122604E0,4.563711166E0,-1.466979790E1,-1.686341763E0
9.050122604E0,4.688137531E0,-1.289910889E1,-3.920639992E0
9.060122604E0,4.263411522E0,-1.122832012E1,-5.583053589E0
9.070122604E0,3.200400352E0,-9.851848602E0,-6.123831272E0
9.080122604E0,1.065404296E0,-8.350353241E0,-1.004925728E1
9.090122604E0,-2.916850805E0,-5.868995667E0,-2.602314186E1
9.100122604E0,-1.758126378E0,-5.327021599E0,-1.919641876E1
9.110122604E0,-2.650051117E-1,-5.203791142E0,-9.766305923E0
9.120122604E0,1.423131227E0,-4.426123619E0,-8.386843204E-1
9.130122604E0,1.456630826E0,-4.191627026E0,7.442276478E0
9.140122604E0,1.252044439E0,-4.291527271E0,8.144570351E0
9.150122604E0,2.573480844E0,-2.768495798E0,1.292722464E0
9.160122604E0,3.305086374E0,-8.033902049E-1,-1.320838094E0
9.170122604E0,4.471587181E0,1.411765367E-1,-3.752544165E0
9.180122604E0,5.319842815E0,9.750752449E-1,-5.319244862E0
9.190122604E0,5.711667538E0,1.984846354E0,-5.220541000E0
9.200122604E0,4.704887390E0,6.484549642E-1,-4.423730850E0
9.210122604E0,3.938585997E0,-1.063609719E0,-2.526820660E0
9.220122604E0,3.224328518E0,-3.100499868E0,-1.364507079E0
9.230122604E0,2.761317253E0,-5.276772022E0,-1.590628862E0
9.240122604E0,2.193620205E0,-7.350152969E0,-1.500898004E0
9.250122604E0,4.123431683E0,-1.970908165E1,-3.233301640E0
9.260122604E0,3.411566973E0,-2.431227493E1,-1.201795220E0
9.270122604E0,-1.135992527E0,-2.696830750E1,3.442075491E0
9.280122604E0,-4.415954113E0,-3.019981384E1,5.477769375E0
9.290122604E0,-1.054995537E1,-3.727957916E1,7.152146816E0
9.300122604E0,-1.333101273E1,-2.619422913E1,-1.956132501E-1
9.310122604E0,-8.219944000E0,-1.921436501E1,-4.355535507E0
9.320122604E0,-4.778466702E0,-2.005843353E1,-8.201997757E0
9.330122604E0,-1.762313843E0,-2.096531296E1,-8.981459618E0
9.340122604E0,-4.965107143E-2,-2.127757645E1,-5.567500114E0
9.350122604E0,2.938386202E0,-2.007039833E1,-1.794617064E-2
9.360122604E0,5.254040241E0,-1.835952950E1,1.424327731E0
9.370122604E0,5.340780258E0,-1.658285904E1,2.034497499E0
9.380122604E0,4.023531437E0,-1.427916908E1,1.627119422E0
9.390122604E0,4.794020176E0,-1.196411324E1,-4.043870270E-1
9.400122604E0,2.737987280E0,-1.022871876E1,-2.637488842E0
9.410122604E0,4.342973232E-1,-8.286943436E0,-4.252644062E0
9.420122604E0,-3.122633696E-1,-6.684948444E0,-4.096512318E0
9.430122604E0,-8.416753411E-1,-5.733202934E0,-3.293122053E0
9.440122604E0,-1.749153376E0,-5.056632519E0,-2.267199516E0
9.450122604E0,-2.694916487E0,-4.357928276E0,-1.562513232E0
9.460122604E0,-2.391626120E0,-3.069393158E0,-1.645065546E-1
9.470122604E0,-1.716850281E0,-2.885145903E0,2.841476798E-1
9.480122604E0,-1.304686546E0,-2.716451883E0,8.853443861E-1
9.490122604E0,-5.694918036E-1,-1.957927108E0,5.964110494E-1
9.500122604E0,6.538388133E-1,-5.976074338E-1,5.617151260E-1
9.510122604E0,2.911466837E0,1.829911113E0,1.490728498E0
9.520122604E0,3.205784082E0,2.477169752E0,5.479564071E-1
9.530122604E0,3.586242914E0,3.345764160E0,-5.509474277E-1
9.540122604E0,4.028914928E0,3.186641455E0,-1.828714728E0
9.550122604E0,4.762913704E0,1.478764415E0,-1.056431174E0
9.560122604E0,5.128417015E0,-2.327019930E0,-8.015955687E-1
9.570122604E0,2.003988981E0,-2.620140791E0,-1.811366796E0
9.580122604E0,-6.927221417E-1,-1.805384636E0,-1.586441398E0
9.590122604E0,-1.628913999E0,-7.818548083E-1,-8.273184299E-1
9.600122604E0,-1.718644857E0,-3.708875179E-2,2.021935135E-1
9.610122604E0,-1.093519926E0,-2.310270309E0,-1.275374413E0
9.620122604E0,-1.199402332E0,-5.876772404E0,-2.667997360E0
9.630122604E0,-1.779661894E0,-1.212622738E1,2.063809484E-1
9.640122604E0,-1.380658627E0,-1.946621132E1,5.303691387E0
9.650122604E0,-1.110269666E0,-2.957827950E1,6.725028038E0
9.660122604E0,-7.131807804E0,-4.512444687E1,-1.326820135E0
9.670122604E0,-5.486144066E0,-3.531925964E1,-8.991031051E-1
9.680122604E0,-8.973084688E-1,-2.093061829E1,-7.513462901E-1
9.690122604E0,1.637887120E0,-1.398784256E1,-8.745766878E-1
9.700122604E0,3.282354355E0,-1.010907745E1,-2.356930375E-1
9.710122604E0,5.126024246E0,-7.481160164E0,2.153540373E0
9.720122604E0,6.106483459E0,-7.829914093E0,2.212762833E0
9.730122604E0,6.527620316E0,-8.227122307E0,2.250449657E0
9.740122604E0,6.672386169E0,-8.546564102E0,2.790031195E0
9.750122604E0,6.577869415E0,-9.574281693E0,3.405584812E0
9.760122604E0,5.832505226E0,-1.151246834E1,3.241676569E0
9.770122604E0,4.304089546E0,-1.678026772E1,-1.639083475E-1
9.780122604E0,4.653441906E0,-1.843909073E1,-4.223332107E-1
9.790122604E0,4.037290096E0,-1.868196297E1,6.221338734E-2
9.800122604E0,3.337987661E0,-1.751546097E1,-5.886343718E-1
9.810122604E0,3.287140131E0,-1.535055542E1,-1.671984792E0
9.820122604E0,4.298706055E0,-1.125763226E1,-1.646860242E0
9.830122604E0,4.551148891E0,-9.947562218E0,-2.188236237E0
9.840122604E0,4.034897327E0,-8.359326363E0,-4.382454872E0
9.850122604E0,2.260020971E0,-6.896713257E0,-7.411170006E0
9.860122604E0,-1.214357466E-1,-5.637490273E0,-1.005105114E1
9.870122604E0,-3.183052301E0,-4.598406792E0,-1.056371403E1
9.880122604E0,-3.000599623E0,-4.446462631E0,-7.253243446E0
9.890122604E0,-1.955534339E0,-4.207778454E0,-2.516651154E0
9.900122604E0,-1.276570916E0,-4.013361931E0,1.160518974E-1
9.910122604E0,-4.408775866E-1,-3.202194929E0,-1.531406492E-1
9.920122604E0,1.285543919E0,-1.168893814E0,-2.116451740E0
9.930122604E0,2.533401012E0,-7.070791125E-1,-2.304886341E0
9.940122604E0,3.159124136E0,-3.565305769E-1,-2.362314224E0
9.950122604E0,3.961317778E0,-6.041877344E-2,-2.965305567E0
9.960122604E0,4.988437176E0,5.096712112E-1,-3.632902861E0
9.970122604E0,5.816353798E0,2.494517565E-1,-3.305684566E0
9.980122604E0,5.033900738E0,-1.230509043E0,-2.470589399E0
9.990122604E0,4.138386726E0,-2.947957516E0,-1.125224829E0
1.000012260E1,3.690928936E0,-4.700700283E0,-2.620140910E-1
1.001012260E1,2.965903759E0,-6.609574318E0,2.835494876E-1
1.002012260E1,2.140379906E0,-8.894122124E0,4.426721931E-1
1.003012260E1,4.346562386E0,-2.022294044E1,-1.464407444E0
1.004012260E1,2.912663460E0,-2.323969078E1,8.763712645E-1
1.005012260E1,-4.253242314E-1,-2.372543526E1,6.132804394E0
1.006012260E1,-5.279763222E0,-2.590649223E1,1.059182930E1
1.007012260E1,-9.514460564E0,-3.049772072E1,1.029272652E1
1.008012260E1,-1.314676571E1,-2.708436012E1,-1.675574064E0
1.009012260E1,-9.813564301E0,-2.305903435E1,-8.910871506E0
1.010012260E1,-6.234499454E0,-2.229931259E1,-1.280937767E1
1.011012260E1,-2.770888567E0,-2.227837563E1,-1.188156128E1
1.012012260E1,6.580262631E-2,-2.244467545E1,-8.601000786E0
1.013012260E1,7.250850677E0,-1.867478371E1,8.913264424E-2
1.014012260E1,1.305882931E1,-1.684307861E1,2.574677229E0
1.015012260E1,1.119063377E1,-1.700818253E1,3.924229145E-1
1.016012260E1,5.459224701E0,-1.639023781E1,-1.152742267E0
1.017012260E1,3.308675528E0,-1.324786282E1,-2.673381090E0
1.018012260E1,2.435893536E0,-1.134377384E1,-3.387638569E0
1.019012260E1,2.691327333E0,-1.014197922E1,-1.938186288E0
1.020012260E1,1.467996716E0,-8.851649284E0,-1.096511006E0
1.021012260E1,1.465603858E-1,-6.939784050E0,-1.640279889E0
1.022012260E1,-7.339983582E-1,-4.992624283E0,-1.578664780E0
1.023012260E1,-1.550549030E0,-2.533401012E0,-7.657032460E-2
1.024012260E1,-1.674377680E0,-2.018944025E0,2.901297510E-1
1.025012260E1,-1.698904037E0,-1.634896040E0,5.802594870E-2
1.026012260E1,-1.417149186E0,-1.393221021E0,-3.032902777E-1
1.027012260E1,-7.160521746E-1,-1.301695466E0,-1.028315544E0
1.028012260E1,1.611566067E0,4.917250574E-1,-1.309472203E0
1.029012260E1,2.867797852E0,1.644467354E0,-1.733001828E0
1.030012260E1,3.617947817E0,2.487937450E0,-1.825125456E0
1.031012260E1,3.105285645E0,2.400001049E0,-2.402393818E0
1.032012260E1,4.519443989E0,1.727019787E0,-3.263211966E0
1.033012260E1,6.797410965E0,2.506481707E-1,-2.531008244E0
1.034012260E1,5.537590027E0,-2.801995277E0,9.302098155E-1
1.035012260E1,3.915854216E0,-2.870789051E0,2.153540403E-1
1.036012260E1,2.055434704E0,-2.632703066E0,2.285145670E-1
1.037012260E1,4.683950245E-1,-1.880758643E0,6.580262184E-1
1.038012260E1,-6.317051649E-1,-1.317847013E0,7.722834945E-1
1.039012260E1,-1.228714466E0,-3.518645763E0,5.647061467E-1
1.040012260E1,-8.303094506E-1,-6.050850391E0,7.752745152E-1
1.041012260E1,-1.745564103E0,-1.126959610E1,9.637092948E-1
1.042012260E1,-1.897508383E0,-1.646142387E1,3.037090063E0
1.043012260E1,-1.641476393E0,-2.122912216E1,3.270988464E0
1.044012260E1,-7.118049145E0,-3.259981537E1,1.731207132E0
1.045012260E1,-7.018746853E0,-3.619263840E1,1.854437590E-2
1.046012260E1,-1.387238979E0,-2.889991379E1,-1.383649707E0
1.047012260E1,2.673381090E0,-1.998605156E1,-1.239482164E0
1.048012260E1,4.670789719E0,-1.366840076E1,-2.626122832E-1
1.049012260E1,7.264011383E0,-9.340981483E0,-8.811569214E-1
1.050012260E1,8.422137260E0,-8.578866959E0,-1.579262912E-1
1.051012260E1,9.136395454E0,-8.686544418E0,1.060020447E0
1.052012260E1,8.712266922E0,-9.550951958E0,1.484148264E0
1.053012260E1,6.971488953E0,-1.088913727E1,9.565308690E-1
1.054012260E1,2.471785784E0,-1.408415413E1,1.854437590E-2
1.055012260E1,1.194018483E0,-1.448196125E1,-7.692924738E-1
1.056012260E1,-2.691925466E-1,-1.536730480E1,-1.005583763E0
1.057012260E1,-8.051848412E-1,-1.545225048E1,-1.233500123E0
1.058012260E1,-5.533402562E-1,-1.472902012E1,-2.075175524E0
1.059012260E1,5.682953596E-1,-1.281356525E1,-2.806182861E0
1.060012260E1,2.002792597E0,-1.238465214E1,-2.380858421E0
1.061012260E1,3.431905985E0,-1.198445225E1,-2.665006161E0
1.062012260E1,4.955535889E0,-1.092443180E1,-3.610171080E0
1.063012260E1,6.549155712E0,-9.696913719E0,-5.271986485E0
1.064012260E1,6.612565517E0,-8.647661209E0,-6.931408882E0
1.065012260E1,2.218146563E0,-7.380063057E0,-6.643671989E0
1.066012260E1,9.439685345E-1,-6.841079712E0,-4.988437176E0
1.067012260E1,1.345962733E-1,-6.151348591E0,-2.947359324E0
1.068012260E1,-4.779663086E-1,-5.634499073E0,-2.994019270E0
1.069012260E1,3.415754437E-1,-4.313661098E0,-4.409373760E0
1.070012260E1,2.300100803E0,-1.520638824E0,-4.590032101E0
1.071012260E1,3.267997503E0,-7.956135273E-1,-3.303291559E0
1.072012260E1,3.839283943E0,-3.164508045E-1,-1.823330879E0
1.073012260E1,4.496711731E0,1.064806059E-1,-4.965106845E-1
1.074012260E1,5.254040241E0,3.337987661E-1,7.196413875E-1
1.075012260E1,5.610570908E0,4.187439568E-3,2.212762833E0
1.076012260E1,5.989833355E0,-7.513462901E-1,2.913261652E0
1.077012260E1,5.647061348E0,-2.454437733E0,3.451646566E0
1.078012260E1,4.805984497E0,-3.957130432E0,3.372085333E0
1.079012260E1,3.673580885E0,-5.445466042E0,3.248256683E0
1.080012260E1,1.911865234E0,-7.995616913E0,4.369294167E0
1.081012260E1,1.874776483E0,-8.897710800E0,4.751547337E0
1.082012260E1,2.047059774E0,-1.004028416E1,4.543970108E0
1.083012260E1,2.468196630E0,-1.407338619E1,3.624528170E0
1.084012260E1,3.888336897E0,-2.292623138E1,6.690930367E0
1.085012260E1,-3.143570662E0,-2.978884697E1,8.732007980E0
1.086012260E1,-5.635695457E0,-2.656212616E1,7.459624410E-1
1.087012260E1,-2.623131752E0,-2.217488480E1,-9.284749985E0
1.088012260E1,-6.981059909E-1,-2.329233360E1,-1.088375378E1
1.089012260E1,-1.663011760E-1,-2.418784714E1,-7.755736351E0
1.090012260E1,-1.369891018E-1,-2.270010948E1,-3.838685751E0
1.091012260E1,1.235294700E0,-2.104308128E1,-7.968099117E-1
1.092012260E1,3.081357241E0,-2.000160408E1,-2.512463629E-1
1.093012260E1,3.052643538E0,-1.860240173E1,1.980060786E-1
1.094012260E1,2.754138947E0,-1.638365746E1,-2.967100143E-1
1.095012260E1,3.096910715E0,-1.492044544E1,-8.464609981E-1
1.096012260E1,2.735594511E0,-1.448913956E1,-2.501696110E0
1.097012260E1,2.420340061E0,-1.279382420E1,-1.874178290E0
1.098012260E1,1.871785522E0,-1.145264721E1,-6.999006271E-1
1.099012260E1,8.344969153E-1,-1.102552891E1,-2.602194548E-1
1.100012260E1,7.848458290E-1,-1.014975548E1,-1.021137118E0
1.101012260E1,1.252642632E0,-7.899903774E0,-9.858429432E-1
1.102012260E1,6.173482537E-1,-7.029514790E0,-2.261217386E-1
1.103012260E1,-1.525424421E-1,-6.275177479E0,-3.290131316E-2
1.104012260E1,-3.391826153E-1,-5.375475883E0,-7.597211748E-2
1.105012260E1,4.725824669E-2,-4.302893162E0,-9.152546525E-2
1.106012260E1,1.151545882E0,-2.050050735E0,2.243271172E-1
1.107012260E1,1.663609982E0,-1.258624673E0,7.579265833E-1
1.108012260E1,2.405983210E0,-3.786641955E-1,1.791027784E0
1.109012260E1,3.555136204E0,4.444667995E-1,2.705684185E0
1.110012260E1,5.032704353E0,9.601200819E-1,3.073580742E0
1.111012260E1,7.034300327E0,1.103091240E0,1.895115495E0
1.112012260E1,7.523632526E0,5.180460811E-1,-9.391828626E-2
1.113012260E1,7.532605648E0,-3.403790295E-1,-5.976074338E-1
1.114012260E1,6.291927338E0,-1.281356573E0,4.785645306E-1
1.115012260E1,4.246662140E0,-1.435693622E0,1.183250785E0
1.116012260E1,7.986045480E-1,-6.017948985E-1,1.252044439E0
1.117012260E1,-1.399801224E-1,-9.026923180E-1,2.889333367E-1
1.118012260E1,-6.382854581E-1,-1.667797327E0,-6.711867452E-1
1.119012260E1,-7.860422134E-1,-3.256631613E0,-6.675975323E-1
1.120012260E1,-8.404789567E-1,-6.214758396E0,1.609173268E-1
1.121012260E1,-9.888339639E-1,-1.116790104E1,1.599003673E0
1.122012260E1,-9.726824164E-1,-2.109512520E1,5.644668579E0
1.123012260E1,-3.720241070E0,-2.802653313E1,7.759325504E0
1.124012260E1,-6.804589272E0,-3.533481216E1,8.179863930E0
1.125012260E1,-6.629314899E0,-3.141596603E1,8.339585304E0
1.126012260E1,-3.115455151E0,-1.953619957E1,5.522036552E0
1.127012260E1,-1.738983870E0,-1.558026600E1,7.399803996E-1
1.128012260E1,-7.256234884E-1,-1.615035629E1,2.279163599E-1
1.129012260E1,2.219343036E-1,-1.664507294E1,5.970092416E-1
1.130012260E1,1.928016901E0,-1.775952911E1,-3.589234129E-2
1.131012260E1,3.073580742E0,-1.705185318E1,-1.333998680E0
1.132012260E1,1.575075507E0,-1.675454330E1,6.640082598E-1
1.133012260E1,1.169492126E0,-1.608335686E1,1.159920812E0
1.134012260E1,1.015154958E0,-1.498086452E1,9.266205430E-1
1.135012260E1,6.119644046E-1,-1.344766331E1,5.324030519E-1
1.136012260E1,2.476571500E-1,-1.203829098E1,1.956132501E-1
1.137012260E1,6.963114142E-1,-1.038604641E1,6.400800496E-2
1.138012260E1,1.007976532E0,-1.004985523E1,6.705885530E-1
1.139012260E1,1.089930773E0,-1.046441174E1,1.118644595E0
1.140012260E1,1.098903775E0,-1.108774185E1,6.119644046E-1
1.141012260E1,1.331007600E0,-1.087896824E1,-6.598208547E-1
1.142012260E1,2.557927370E0,-7.627720356E0,-3.771088600E0
1.143012260E1,2.827120066E0,-6.616752625E0,-5.372485161E0
1.144012260E1,2.275574446E0,-6.400800705E0,-6.311667919E0
1.145012260E1,1.325025558E0,-6.390631199E0,-5.769095421E0
1.146012260E1,2.709871531E-1,-6.067600250E0,-3.999603033E0
1.147012260E1,-1.392622828E0,-5.057230473E0,-3.592225075E0
1.148012260E1,-8.889335990E-1,-3.960121393E0,-5.187639713E0
1.149012260E1,1.034895778E-1,-2.761317253E0,-6.253642082E0
1.150012260E1,6.299105883E-1,-2.423929453E0,-5.799603939E0
1.151012260E1,1.558923960E0,-1.401595831E0,-4.601995945E0
1.152012260E1,1.842473388E0,-5.515456200E-1,-3.470191002E0
1.153012260E1,2.803191662E0,-6.299105883E-1,-8.620143533E-1
1.154012260E1,3.785445452E0,-3.056831062E-1,2.117647976E-1
1.155012260E1,4.700700283E0,3.810569942E-1,1.493121386E0
1.156012260E1,4.888536453E0,3.224328458E-1,2.461018085E0
1.157012260E1,4.298107624E0,-9.529415965E-1,3.552145243E0
1.158012260E1,3.748356581E0,-5.094319344E0,5.257031441E0
1.159012260E1,4.428516388E0,-6.986443996E0,5.529813290E0
1.160012260E1,5.525625706E0,-8.999405861E0,6.182455540E0
1.161012260E1,7.459026337E0,-1.085324574E1,6.723831654E0
1.162012260E1,1.166501045E1,-1.376411438E1,7.372884750E0
1.163012260E1,9.838089943E0,-2.407658195E1,1.001515961E1
1.164012260E1,5.019543648E0,-2.497807693E1,5.140381336E0
1.165012260E1,-1.353739381E0,-2.549073982E1,-3.176471949E0
1.166012260E1,-3.527618885E0,-2.602733040E1,-1.096929741E1
1.167012260E1,-3.823730469E0,-2.580479813E1,-1.053799057E1
1.168012260E1,-2.806182861E0,-2.232802582E1,-1.739582062E0
1.169012260E1,-2.445464849E0,-2.102274132E1,4.666004330E-2
1.170012260E1,-1.722234130E0,-2.136013031E1,4.875376225E-1
1.171012260E1,-1.616949916E0,-2.230230331E1,4.342973232E-1
1.172012260E1,-1.359721422E0,-2.157667923E1,-5.383851007E-3
1.173012260E1,4.391427994E0,-1.816152382E1,-2.715255499E0
1.174012260E1,6.095715523E0,-1.674617004E1,-3.805784464E0
1.175012260E1,5.616552830E0,-1.663310814E1,-4.371686935E0
1.176012260E1,5.163113117E0,-1.601516151E1,-3.809373617E0
1.177012260E1,5.523232937E0,-1.517887020E1,-2.801995277E0
1.178012260E1,4.691727161E0,-1.391067410E1,-2.064407825E0
1.179012260E1,2.528615236E0,-1.016590691E1,-1.972284079E0
1.180012260E1,2.097309113E0,-8.103892326E0,-1.898704767E0
1.181012260E1,1.877767563E0,-6.658029079E0,-1.281954765E0
1.182012260E1,1.242473125E0,-5.365306377E0,-7.208378315E-1
1.183012260E1,3.960121572E-1,-4.349553585E0,-2.769692242E-1
1.184012260E1,-1.310668588E0,-3.242274761E0,-1.316052489E-2
1.185012260E1,-1.527219057E0,-2.353939295E0,-4.923232496E-1
1.186012260E1,-1.015753269E0,-9.619147182E-1,-2.560320199E-1
1.187012260E1,-2.219343036E-1,4.558327198E-1,4.265206456E-1
1.188012260E1,6.442674994E-1,1.706680775E0,1.007378340E0
1.189012260E1,2.126621008E0,3.523431301E0,1.488933921E0
1.190012260E1,2.844467878E0,4.342973232E0,2.105085611E0
1.191012260E1,2.797209740E0,4.585246563E0,2.432304144E0
1.192012260E1,2.118246317E0,3.915256023E0,2.324627161E0
1.193012260E1,1.830509305E0,3.187838078E0,1.519442320E0
1.194012260E1,1.052842021E0,1.654636860E0,-5.377869010E-1
1.195012260E1,8.895317912E-1,9.607182741E-1,-1.323829174E0
1.196012260E1,5.724828243E-1,3.870390654E-1,-2.257628202E0
1.197012260E1,1.208375469E-1,-7.477571070E-2,-3.468994617E0
1.198012260E1,1.130608693E-1,-6.418746710E-1,-5.359324455E0
1.199012260E1,-1.223330617E0,-3.780659676E0,-4.900500774E0
1.200012260E1,-1.768295884E0,-7.809575081E0,-5.813961029E0
1.201012260E1,-3.119642496E0,-1.467518139E1,-1.098305583E0
1.202012260E1,-3.420539856E0,-2.343530464E1,5.313860893E0
1.203012260E1,-4.557728767E0,-3.328894806E1,5.821737289E0
1.204012260E1,-7.016952515E0,-4.424388885E1,4.727021217E0
1.205012260E1,-3.078366280E0,-2.577907562E1,5.359922647E-1
1.206012260E1,-2.839084148E0,-1.536610889E1,7.369893789E-1
1.207012260E1,-2.667997360E0,-1.062054348E1,1.136590719E0
1.208012260E1,-1.657029629E0,-8.255836487E0,4.372883439E-1
1.209012260E1,2.512463741E-2,-7.766504288E0,-2.620140910E-1
1.210012260E1,3.580859184E0,-8.544171333E0,1.326820135E0
1.211012260E1,4.530211449E0,-9.753145218E0,2.644667149E0
1.212012260E1,4.692325115E0,-1.306959724E1,4.161118507E0
1.213012260E1,4.741976261E0,-1.665942955E1,4.219742775E0
1.214012260E1,4.445266247E0,-1.895653915E1,3.433102369E0
1.215012260E1,3.197409153E0,-1.915095520E1,3.680759430E0
1.216012260E1,1.563709617E0,-1.910070610E1,4.666004181E0
1.217012260E1,1.148554832E-1,-1.945484543E1,4.428516388E0
1.218012260E1,-7.824530005E-1,-1.796710777E1,2.931207657E0
1.219012260E1,-1.531406522E0,-1.587817287E1,1.667797327E0
1.220012260E1,-6.203392744E-1,-1.275494099E1,-1.607976794E0
1.221012260E1,-8.374879360E-1,-1.199821091E1,-2.538186550E0
1.222012260E1,-1.026520967E0,-1.122114182E1,-3.558725595E0
1.223012260E1,-1.040279627E0,-9.938589096E0,-5.901299000E0
1.224012260E1,-4.223332107E-1,-7.545167923E0,-1.035613632E1
1.225012260E1,3.123830080E0,-4.905286312E0,-1.340997601E1
1.226012260E1,3.075973511E0,-5.271986485E0,-7.689933777E0
1.227012260E1,2.278565407E0,-5.150550842E0,-4.283152580E0
1.228012260E1,3.081357241E0,-4.491926193E0,-4.577469826E0
1.229012260E1,3.616751432E0,-3.570689678E0,-4.138386726E0
1.230012260E1,2.791825771E0,-1.103689432E0,-2.310868502E0
1.231012260E1,3.600001574E0,-5.449653864E-1,-2.065006018E0
1.232012260E1,4.235894203E0,7.633104324E-1,-1.527219057E0
1.233012260E1,3.949353695E0,7.154539824E-1,-1.533799291E0
1.234012260E1,4.220939159E0,3.026920557E-1,-2.062014818E0
1.235012260E1,5.795416355E0,1.090528965E0,-3.856033802E0
1.236012260E1,6.272186279E0,1.803590059E0,-4.491328239E0
1.237012260E1,6.043073654E0,1.931606054E0,-4.342973232E0
1.238012260E1,4.562514782E0,-1.010967568E-1,-3.983451605E0
1.239012260E1,2.973082066E0,-3.208775282E0,-3.228515863E0
1.240012260E1,2.144567251E0,-6.090929985E0,-1.665404558E0
1.241012260E1,2.052443504E0,-1.125224876E1,1.763510346E0
1.242012260E1,2.813959360E0,-1.411226940E1,1.556531072E0
1.243012260E1,5.608776093E0,-1.889133453E1,1.613958836E0
1.244012260E1,3.963710785E0,-2.293759727E1,3.186043262E0
1.245012260E1,-4.821537733E-1,-2.295315170E1,6.577869415E0
1.246012260E1,-7.469794273E0,-3.241736221E1,3.086143017E0
1.247012260E1,-8.750552177E0,-3.379144287E1,-5.312066078E0
1.248012260E1,-7.680362701E0,-2.842912674E1,-7.083951473E0
1.249012260E1,-5.769095421E0,-2.405564499E1,-6.655636311E0
1.250012260E1,-3.334996462E0,-2.335993195E1,-6.637091637E0
1.251012260E1,4.408775866E-1,-2.020738792E1,-3.672384501E0
1.252012260E1,5.306682587E0,-1.816212273E1,1.229312658E0
1.253012260E1,7.335197926E0,-1.800658798E1,1.941775560E0
1.254012260E1,9.213563919E0,-1.616291809E1,1.936989903E0
1.255012260E1,9.190233231E0,-1.440539074E1,2.721835673E-1
1.256012260E1,5.158925533E0,-1.401595879E1,-2.819941521E0
1.257012260E1,5.599802971E0,-1.252343559E1,-1.893919110E0
1.258012260E1,4.837689400E0,-1.041954613E1,-2.405385017E0
1.259012260E1,3.656233072E0,-8.991629601E0,-2.075175524E0
1.260012260E1,1.844866276E0,-7.939385414E0,-1.496112347E0
1.261012260E1,-1.615155339E-1,-5.054837704E0,-2.270788670E0
1.262012260E1,-1.261615753E0,-3.931407690E0,-2.248655081E0
1.263012260E1,-2.269592285E0,-3.491726398E0,-1.555334687E0
1.264012260E1,-3.124428272E0,-3.483351469E0,-7.112665176E-1
1.265012260E1,-3.664607763E0,-3.369692564E0,-5.593222976E-1
1.266012260E1,-3.918246984E0,-2.975475073E0,-9.122636318E-1
1.267012260E1,-3.096910715E0,-1.170090318E0,-9.505487680E-1
1.268012260E1,-2.322234392E0,-8.135596663E-2,-4.953143001E-1
1.269012260E1,-1.800000787E0,1.143171072E0,4.199403822E-1
1.270012260E1,-1.384247899E0,2.463410854E0,6.550351977E-1
1.271012260E1,-8.590233326E-1,3.789632797E0,6.173482537E-1
1.272012260E1,-8.973085135E-2,5.230112076E0,7.250252366E-1
1.273012260E1,3.984049559E-1,6.214758396E0,9.678967595E-1
1.274012260E1,2.321038008E0,6.773482800E0,1.400399446E0
1.275012260E1,4.887938499E0,5.511268616E0,8.087740541E-1
1.276012260E1,5.979663849E0,2.387438774E0,7.256234884E-1
1.277012260E1,3.847060680E0,-2.373081923E0,-5.288137794E-1
1.278012260E1,2.498106956E0,-3.031706333E0,-1.026520967E0
1.279012260E1,1.186840057E0,-3.782454491E0,-1.989632010E0
1.280012260E1,-1.674975827E-2,-6.288936138E0,-4.639084816E0
1.281012260E1,-1.362712502E0,-1.169312572E1,-4.654638290E0
1.282012260E1,3.744767308E-1,-2.301476669E1,1.332802176E0
1.283012260E1,-1.591227055E-1,-3.415275574E1,2.260619164E0
1.284012260E1,-2.996412039E0,-4.363551331E1,1.389631748E0
1.285012260E1,-5.090730190E0,-3.959283829E1,-2.111666054E-1
1.286012260E1,-3.328416348E0,-2.645145798E1,-3.582653761E0
1.287012260E1,-2.955136001E-1,-1.499402523E1,-2.464009047E0
1.288012260E1,1.144367456E0,-1.267956734E1,-1.280160069E0
1.289012260E1,2.493919373E0,-1.113500023E1,-1.399801224E-1
1.290012260E1,4.112065792E0,-1.037946606E1,1.010967612E0
1.291012260E1,5.810969830E0,-9.916455269E0,2.131406784E0
1.292012260E1,7.505686283E0,-1.005703354E1,3.396013498E0
1.293012260E1,7.554141045E0,-1.074317551E1,3.669991732E0
1.294012260E1,7.144370079E0,-1.212443256E1,4.047459602E0
1.295012260E1,6.644270420E0,-1.396690559E1,4.785645485E0
1.296012260E1,5.332405090E0,-1.652483368E1,5.702694416E0
1.297012260E1,3.787240028E0,-1.847438622E1,4.980660439E0
1.298012260E1,1.709073544E0,-1.664327812E1,3.533002615E0
1.299012260E1,1.278963685E0,-1.547617912E1,1.336391449E0
1.300012260E1,1.037288666E0,-1.394058514E1,-8.195417374E-2
1.301012260E1,4.366901219E-1,-1.283689499E1,-1.432104349E0
1.302012260E1,-3.505485058E-1,-1.203410339E1,-2.871387243E0
1.303012260E1,-2.194218397E0,-9.272786140E0,-3.818944931E0
1.304012260E1,-3.203989506E0,-8.965906143E0,-4.069592953E0
1.305012260E1,-5.048855782E0,-9.000003815E0,-6.504888535E0
1.306012260E1,-6.641279221E0,-8.114660263E0,-1.494736481E1
1.307012260E1,-5.402395248E0,-5.862415314E0,-1.980778503E1
1.308012260E1,1.112662554E-1,-3.513859987E0,-7.512865067E0
1.309012260E1,1.781456470E0,-2.555534601E0,-6.771687865E-1
1.310012260E1,2.462214470E0,-1.867598057E0,3.357130051E0
1.311012260E1,2.124228239E0,-1.554736495E0,4.521238327E0
1.312012260E1,2.648854733E0,-3.104687333E-1,3.899104595E0
1.313012260E1,4.426722050E0,1.259821177E0,9.619147182E-1
1.314012260E1,5.775077343E0,8.679963946E-1,-1.928016901E0
1.315012260E1,6.964908600E0,1.205384374E0,-5.196612358E0
1.316012260E1,7.521239758E0,1.590030670E0,-6.887141705E0
1.317012260E1,7.469794273E0,2.140978098E0,-6.227919102E0
1.318012260E1,2.398804665E0,-1.270588875E0,-5.488536835E0
1.319012260E1,1.292124271E0,-2.852842808E0,-4.473381996E0
1.320012260E1,1.243071318E0,-4.705485821E0,-2.904886723E0
1.321012260E1,2.413759947E0,-6.949953556E0,-1.262812138E0
1.322012260E1,3.296711445E0,-9.398408890E0,8.015955985E-2
1.323012260E1,7.086942673E0,-1.614198112E1,2.930011272E0
1.324012260E1,1.025204849E1,-2.171127701E1,3.840480328E0
1.325012260E1,6.476174355E0,-2.405564499E1,6.995417118E0
1.326012260E1,-1.377069473E0,-2.575454903E1,8.242077827E0
1.327012260E1,-8.724829674E0,-2.995215797E1,8.154141426E0
1.328012260E1,-1.544088459E1,-3.657189941E1,-9.355936646E-1
1.329012260E1,-1.128873920E1,-3.096791077E1,-4.082753658E0
1.330012260E1,-7.301698208E0,-2.400838661E1,-8.298907280E0
1.331012260E1,-3.805784464E0,-2.070330048E1,-9.796813965E0
1.332012260E1,-2.103291035E0,-2.099701881E1,-6.986443996E0
1.333012260E1,-4.295116663E-1,-2.103889275E1,-3.991826296E0
1.334012260E1,2.802593470E0,-1.735454369E1,2.651845694E0
1.335012260E1,7.940581799E0,-1.501017666E1,1.939382792E0
1.336012260E1,1.030110168E1,-1.484746456E1,7.190431952E-1
1.337012260E1,7.778468132E0,-1.492104340E1,-8.285148144E-1
1.338012260E1,5.648257732E0,-1.368275833E1,-1.685743570E0
1.339012260E1,3.666402578E0,-1.115294647E1,-2.405385017E0
1.340012260E1,3.371487141E0,-9.829715729E0,-1.329811215E0
1.341012260E1,1.571486235E0,-7.922635555E0,-1.913659930E0
1.342012260E1,1.214357466E-1,-6.113063812E0,-2.142772675E0
1.343012260E1,-8.261220455E-1,-4.414757729E0,-2.212164640E0
1.344012260E1,-1.331605792E0,-1.640279889E0,-5.491527915E-1
1.345012260E1,-2.378465652E0,-1.875972986E0,-4.444667995E-1
1.346012260E1,-3.191427231E0,-1.978266120E0,-3.332005441E-1
1.347012260E1,-3.425923824E0,-1.594816327E0,-4.755735099E-1
1.348012260E1,-2.647658348E0,-9.008977413E-1,-1.090528965E0
1.349012260E1,5.383851007E-3,1.338784218E0,-7.262216806E-1
1.350012260E1,1.459023595E0,2.811566591E0,-3.182454109E-1
1.351012260E1,2.760120869E0,4.331008911E0,2.805584669E-1
1.352012260E1,3.069991350E0,5.466403484E0,6.400800496E-2
1.353012260E1,3.918845177E0,6.617949009E0,-9.744769931E-1
1.354012260E1,6.528816700E0,2.723630428E0,-2.406581402E0
1.355012260E1,6.263811588E0,2.632105052E-1,1.412363529E0
1.356012260E1,4.027718544E0,-1.163509965E0,1.931007862E0
1.357012260E1,2.577069998E0,-1.841875196E0,8.057830334E-1
1.358012260E1,1.901695848E0,-1.688734531E0,-5.982056609E-4
1.359012260E1,1.244866014E0,-1.262812138E0,-8.482556343E-1
1.360012260E1,4.947160780E-1,-2.490330219E0,-3.607180119E0
1.361012260E1,-4.139583111E-1,-5.603990555E0,-4.798805714E0
1.362012260E1,-2.392224550E0,-1.135813046E1,-2.539981127E0
1.363012260E1,-3.565903902E0,-1.856172371E1,2.705684185E0
1.364012260E1,-3.610769272E0,-2.606381989E1,2.361117840E0
1.365012260E1,-8.924032211E0,-4.082095718E1,5.706881881E-1
1.366012260E1,-9.168100357E0,-3.987818527E1,5.425725579E-1
1.367012260E1,-5.230710506E0,-2.878804970E1,-6.550351977E-1
1.368012260E1,-2.870190859E0,-2.022832489E1,7.441678643E-1
1.369012260E1,-1.054636598E0,-1.541037560E1,1.169492126E0
1.370012260E1,2.801995277E0,-1.077787113E1,1.012762189E0
1.371012260E1,4.376472473E0,-1.041476059E1,2.079362869E0
1.372012260E1,5.988636971E0,-1.042074299E1,2.459223509E0
1.373012260E1,7.265805721E0,-1.042134094E1,2.712862730E0
1.374012260E1,7.205387115E0,-1.044766140E1,3.780659676E0
1.375012260E1,4.566103935E0,-1.068455124E1,3.850051641E0
1.376012260E1,2.797807932E0,-1.176969624E1,4.219742775E0
1.377012260E1,1.497308731E0,-1.348176098E1,3.801596880E0
1.378012260E1,9.284151793E-1,-1.513879108E1,3.118446112E0
1.379012260E1,1.467996716E0,-1.660260010E1,2.397608280E0
1.380012260E1,2.270190477E0,-1.597747517E1,2.026720762E0
1.381012260E1,2.821736097E0,-1.494796276E1,4.887340367E-1
1.382012260E1,3.367897987E0,-1.294098282E1,-1.253839016E0
1.383012260E1,3.747758389E0,-1.127737331E1,-2.414956331E0
1.384012260E1,3.464807272E0,-1.034776115E1,-2.650051117E0
1.385012260E1,2.477767944E0,-9.944570541E0,-3.675973892E0
1.386012260E1,-6.634100676E-1,-8.673383713E0,-6.083751678E0
1.387012260E1,-2.874976397E0,-8.428119659E0,-1.032802105E1
1.388012260E1,-3.899104595E0,-7.659425259E0,-1.621735573E1
1.389012260E1,-2.587239504E0,-6.448657036E0,-1.759322929E1
1.390012260E1,4.815555513E-1,-5.396413326E0,-1.248933792E1
1.391012260E1,3.363710403E0,-3.226123095E0,-1.153938770E0
1.392012260E1,4.118047714E0,-1.333998680E0,1.710269928E0
1.393012260E1,3.796213150E0,-3.290131316E-2,4.030111313E0
1.394012260E1,3.447459221E0,1.818545163E-1,4.044468403E0
1.395012260E1,3.884747505E0,4.013960063E-1,2.697309256E0
1.396012260E1,5.063212872E0,9.702895880E-1,-1.523031592E0
1.397012260E1,5.785246849E0,1.121635556E0,-4.229313850E0
1.398012260E1,6.361319065E0,1.800599098E0,-5.516054630E0
1.399012260E1,6.480959892E0,1.591227055E0,-5.722435474E0
1.400012260E1,4.441078663E0,-7.357929349E-1,-5.084748268E0
1.401012260E1,1.947159410E0,-4.531407833E0,-2.297708035E0
1.402012260E1,3.126222849E0,-6.396613121E0,-8.733802438E-1
1.403012260E1,4.911866665E0,-7.576274872E0,-2.703889608E-1
1.404012260E1,5.925825119E0,-1.069771194E1,-6.747759581E-1
1.405012260E1,9.875777245E0,-1.891107559E1,-3.043670416E0
1.406012260E1,-4.546363056E-1,-2.442354012E1,3.001197815E0
1.407012260E1,-5.170291424E0,-2.614457893E1,7.411170006E0
1.408012260E1,-9.975079536E0,-2.993062210E1,6.789036274E0
1.409012260E1,-1.503290844E1,-3.491247940E1,3.151347399E0
1.410012260E1,-1.570110416E1,-3.583192062E1,8.350951076E-1
1.411012260E1,-6.546164513E0,-2.359741783E1,-8.063812256E0
1.411012260E1,-6.546164513E0,-2.359741783E1,-8.063812256E0
1.413012260E1,7.417750359E-1,-2.167418671E1,-7.013363361E0
1.414012260E1,1.504487276E0,-2.136491585E1,-2.875574589E0
1.415012260E1,-7.130611539E-1,-1.997109604E1,1.165902853E0
1.416012260E1,4.322634220E0,-1.565683651E1,-2.751746029E-2
1.417012260E1,1.247677517E1,-1.495573997E1,7.316055298E-1
1.418012260E1,1.041117096E1,-1.494616890E1,-1.881356835E0
1.419012260E1,6.714260101E0,-1.372403431E1,-4.866403103E0
1.420012260E1,5.681757450E0,-1.229193020E1,-4.387240410E0
1.421012260E1,3.714857101E0,-1.118943691E1,-1.974078655E0
1.422012260E1,6.580262631E-2,-7.290332317E0,-1.441675663E0
1.423012260E1,-7.238288522E-1,-5.622535229E0,-1.194616675E0
1.424012260E1,-8.195417523E-1,-3.888336897E0,-7.148557901E-1
1.425012260E1,-1.292124271E0,-2.782852650E0,1.854437590E-2
1.426012260E1,-2.103889227E0,-2.060220242E0,7.190431952E-1
1.427012260E1,-3.543172121E0,-1.335793257E0,1.010369420E0
1.428012260E1,-4.150351048E0,-1.268794179E0,8.883354068E-1
1.429012260E1,-4.122833252E0,-8.871390224E-1,3.451646566E-1
1.430012260E1,-3.311068296E0,-5.084748194E-2,-8.673982322E-2
1.431012260E1,-2.183450699E0,1.189831018E0,-1.561316848E-1
1.432012260E1,1.555334684E-2,4.198805332E0,3.457628787E-1
1.433012260E1,9.439685345E-1,5.037489891E0,1.024726272E0
1.434012260E1,1.230509043E0,4.971687317E0,8.769695163E-1
1.435012260E1,2.056032896E0,4.597210407E0,-3.194418252E-1
1.436012260E1,5.227719307E0,3.896113396E0,-2.538186550E0
1.437012260E1,5.790630817E0,-3.678964674E-1,1.286740422E0
1.438012260E1,4.518247128E0,-1.733001828E0,4.929214716E-1
1.439012260E1,2.685943365E0,-2.155933142E0,-2.063809484E-1
1.440012260E1,1.690529227E0,-1.633101463E0,-4.845465720E-1
1.441012260E1,1.486541033E0,-1.383051515E0,-2.274976015E0
1.442012260E1,1.377069473E0,-5.194219589E0,-5.828317642E0
1.443012260E1,1.884347796E-1,-9.958928108E0,-3.196212769E0
1.444012260E1,-9.475577474E-1,-1.516451359E1,2.483749866E0
1.445012260E1,-2.051845312E0,-2.066321945E1,3.728017569E0
1.446012260E1,-3.896711588E0,-3.213321686E1,4.001996040E0
1.447012260E1,-6.909275532E0,-4.211487579E1,4.075575352E0
1.448012260E1,-4.159922123E0,-3.022374344E1,-1.335195065E0
1.449012260E1,-2.393420935E0,-2.114836502E1,-5.096712112E-1
1.450012260E1,-7.363911867E-1,-1.612822342E1,-2.943171859E-1
1.451012260E1,1.155733347E0,-1.266760349E1,-1.501496136E-1
1.452012260E1,3.173480988E0,-1.070070267E1,1.292124242E-1
1.453012260E1,5.585446358E0,-1.136590767E1,1.283151150E0
1.454012260E1,6.412764549E0,-1.156750298E1,1.481755376E0
1.455012260E1,6.447460651E0,-1.109731293E1,2.030309916E0
1.456012260E1,5.754140377E0,-1.140060329E1,2.188834429E0
1.457012260E1,4.258625984E0,-1.331605816E1,2.223530531E0
1.458012260E1,2.413161755E0,-1.431326675E1,2.228914261E0
1.459012260E1,1.936391711E0,-1.489711571E1,2.884547710E0
1.460012260E1,1.615753531E0,-1.535474300E1,2.607578516E0
1.461012260E1,2.137388945E0,-1.466680622E1,2.814557552E0
1.462012260E1,2.640479803E0,-1.402014637E1,3.591626883E0
1.463012260E1,3.932604074E0,-1.198026466E1,2.024926186E0
1.464012260E1,3.395415306E0,-1.070907784E1,1.561316729E0
1.465012260E1,2.746960402E0,-1.007258701E1,-1.034895778E-1
1.466012260E1,1.508674622E0,-9.176474571E0,-2.688336134E0
1.467012260E1,3.708875179E-2,-8.795417786E0,-4.812564373E0
1.468012260E1,-3.237488985E0,-8.101499557E0,-6.779464722E0
1.469012260E1,-4.700700283E0,-7.332805157E0,-1.499223042E1
1.470012260E1,-2.637488842E0,-5.303092957E0,-2.163709831E1
1.471012260E1,1.240678549E0,-3.553939819E0,-1.546720600E1
1.472012260E1,2.944966555E0,-2.663809776E0,-5.341976643E0
1.473012260E1,2.496910334E0,-2.088335991E0,1.210768223E0
1.474012260E1,4.704887390E0,7.657032460E-2,1.232901812E0
1.475012260E1,5.190032482E0,9.750752449E-1,-4.307080805E-2
1.476012260E1,5.855835438E0,1.666600943E0,-1.879562140E0
1.477012260E1,6.449853420E0,2.488535643E0,-3.820739508E0
1.478012260E1,6.433701992E0,2.337189436E0,-4.932804108E0
1.479012260E1,4.997410297E0,3.870390654E-1,-3.997808456E0
1.480012260E1,4.034298897E0,-9.140582681E-1,-2.697907448E0
1.481012260E1,3.166302681E0,-2.299502611E0,-1.618146300E0
1.482012260E1,2.417349100E0,-3.831507206E0,-9.314061999E-1
1.483012260E1,1.816750646E0,-5.769693375E0,-2.757728100E-1
1.484012260E1,1.561915040E0,-9.406784058E0,4.516452849E-1
1.485012260E1,3.211168051E0,-1.178405285E1,-3.134597540E-1
1.486012260E1,5.896512985E0,-1.887757683E1,-6.023930907E-1
1.487012260E1,3.645465374E0,-2.236870384E1,4.758726120E0
1.488012260E1,8.973085321E-3,-2.501995087E1,8.075178146E0
1.489012260E1,-1.031785107E1,-3.399184036E1,6.446264267E0
1.490012260E1,-1.407817173E1,-3.389313507E1,2.481955290E0
1.491012260E1,-1.235653591E1,-2.779203606E1,-3.937389612E0
1.492012260E1,-8.642875671E0,-2.252483559E1,-9.238089561E0
1.493012260E1,-6.056832314E0,-2.354597282E1,-1.008215809E1
1.494012260E1,-2.967100143E0,-2.372124672E1,-3.903890133E0
1.495012260E1,2.490928411E0,-2.137328911E1,8.679963946E-1
1.496012260E1,1.069352436E1,-1.858505440E1,3.004786968E0
1.497012260E1,1.250189972E1,-1.806461525E1,3.431905985E0
1.498012260E1,7.063014030E0,-1.872264099E1,-7.160521746E-1
1.499012260E1,4.195814610E0,-1.345424366E1,-4.007379532E0
1.500012260E1,4.080958843E0,-1.170987606E1,-3.613760471E0
1.501012260E1,3.652045488E0,-1.056132126E1,-2.142772675E0
1.502012260E1,2.328814745E0,-9.731011391E0,-1.122832060E0
1.503012260E1,7.154539824E-1,-7.532007694E0,-1.741974831E0
1.504012260E1,-2.955136001E-1,-5.322834015E0,-2.349751949E0
1.505012260E1,-2.316850424E0,-2.868396044E0,-9.918249846E-1
1.506012260E1,-3.080160856E0,-1.980658889E0,1.220339537E-1
1.507012260E1,-3.413959742E0,-1.555334687E0,8.799605370E-1
1.508012260E1,-3.279961586E0,-1.413560033E0,1.192822099E0
1.509012260E1,-2.902493954E0,-1.663609982E0,6.705885530E-1
1.510012260E1,-1.555334777E-1,-2.871387303E-1,-2.201396823E-1
1.511012260E1,1.751546144E0,1.185643673E0,-4.570291340E-1
1.512012260E1,3.812364578E0,3.006581545E0,1.848455518E-1
1.513012260E1,5.247459888E0,4.935196877E0,1.107876897E0
1.514012260E1,5.685945034E0,5.076373100E0,9.511470050E-2
1.515012260E1,8.795417786E0,5.814558864E-1,-3.148954630E0
1.516012260E1,8.871988297E0,-1.840080619E0,-8.895317912E-1
1.517012260E1,6.420541286E0,-3.114258766E0,-2.937189937E-1
1.518012260E1,3.909872293E0,-2.303689957E0,-9.750752151E-2
1.519012260E1,2.060818434E0,-1.282552958E0,8.356932998E-1
1.520012260E1,-2.584248483E-1,-1.050449133E0,9.146564603E-1
1.521012260E1,-2.584248483E-1,-1.050449133E0,9.146564603E-1
1.522012260E1,-1.149153113E0,-1.380658627E0,8.075776696E-2
1.523012260E1,-2.038684845E0,-6.059225082E0,-4.195216179E0
1.524012260E1,-3.829712629E0,-1.611805344E1,1.484148264E0
1.525012260E1,-3.905684710E0,-2.324986076E1,2.388036966E0
1.526012260E1,-4.637888432E0,-3.204587555E1,3.379862010E-1
1.527012260E1,-6.005984783E0,-3.937868118E1,-1.736590981E0
1.528012260E1,-5.151148796E0,-3.694817352E1,-2.552543640E0
1.529012260E1,1.188634634E0,-1.932323837E1,-7.668996453E-1
1.530012260E1,3.221935749E0,-1.500120354E1,3.661018610E-1
1.531012260E1,4.628915310E0,-1.246062374E1,8.901300430E-1
1.532012260E1,5.848058701E0,-1.083410263E1,1.082154036E0
1.533012260E1,7.007380962E0,-1.007916737E1,1.468594909E0
1.534012260E1,7.504489899E0,-1.023410225E1,2.262413740E0
1.535012260E1,6.509075642E0,-1.072343445E1,3.293122053E0
1.536012260E1,4.948955536E0,-1.091725349E1,3.223132133E0
1.537012260E1,3.139383316E0,-1.124566841E1,2.657827854E0
1.538012260E1,1.657627940E0,-1.199282742E1,2.385644197E0
1.539012260E1,1.890329868E-1,-1.357149220E1,2.376072884E0
1.540012260E1,-4.109672904E-1,-1.574417496E1,1.439282775E0
1.541012260E1,-2.333002165E-2,-1.542533112E1,8.446664214E-1
1.542012260E1,8.027920127E-1,-1.455972767E1,6.281159520E-1
1.543012260E1,1.677368641E0,-1.381974697E1,9.002995491E-1
1.544012260E1,2.225325108E0,-1.347218990E1,4.307080805E-2
1.545012260E1,3.529413462E0,-1.133300591E1,-2.873181820E0
1.546012260E1,3.547359467E0,-9.814760208E0,-3.994219303E0
1.547012260E1,2.422134638E0,-8.653044701E0,-6.579664230E0
1.548012260E1,-7.118647546E-2,-7.513463020E0,-1.290389442E1
1.549012260E1,-1.595414519E0,-6.263213158E0,-1.613300896E1
1.550012260E1,-1.595414519E0,-6.263213158E0,-1.613300896E1
1.551012260E1,4.061816335E-1,-4.691128731E0,-5.011766911E0
1.552012260E1,9.888339639E-1,-4.031308174E0,-1.763510346E0
1.553012260E1,9.074779749E-1,-3.521636724E0,1.974078640E-2
1.554012260E1,1.540379524E0,-2.449652195E0,1.034895778E0
1.555012260E1,1.540379524E0,-2.449652195E0,1.034895778E0
1.556012260E1,4.299902439E0,4.444667995E-1,-9.649057388E-1
1.557012260E1,5.429912567E0,1.282552958E0,-1.439880967E0
1.558012260E1,6.078966141E0,1.816750646E0,-1.488335729E0
1.559012260E1,6.881757736E0,1.538584948E0,-1.089332461E0
1.560012260E1,7.841279984E0,4.749752879E-1,2.733799815E-1
1.561012260E1,6.737590313E0,-9.320043921E-1,5.700899959E-1
1.562012260E1,5.892325878E0,-2.151745796E0,7.381857634E-1
1.563012260E1,4.798805714E0,-3.827319860E0,9.290133715E-1
1.564012260E1,4.337589264E0,-6.089733601E0,9.266205430E-1
1.565012260E1,4.566103935E0,-9.815358162E0,4.965106845E-1
1.566012260E1,4.566103935E0,-9.815358162E0,4.965106845E-1
1.567012260E1,5.468197823E0,-2.235614204E1,5.135595798E0
1.568012260E1,1.715055585E0,-2.549732018E1,1.194317627E1
1.569012260E1,-4.664209366E0,-3.064129066E1,1.455075455E1
1.570012260E1,-1.087358475E1,-3.469234085E1,8.118846893E0
1.571012260E1,-8.914461136E0,-2.907459068E1,-7.118647575E0
1.572012260E1,-4.951946259E0,-2.558585358E1,-7.892725468E0
1.573012260E1,-2.042872429E0,-2.377508545E1,-6.135197163E0
1.574012260E1,4.289134443E-1,-2.237588310E1,-3.486342669E0
1.575012260E1,3.535395563E-1,-2.200738716E1,-2.430509567E0
1.576012260E1,3.535395563E-1,-2.200738716E1,-2.430509567E0
1.577012260E1,1.224287701E1,-1.393819237E1,5.501099110E0
1.578012260E1,1.109731293E1,-1.515554047E1,3.164507866E0
1.579012260E1,6.130411625E0,-1.552044582E1,-1.411765337E0
1.580012260E1,3.626920938E0,-1.332622719E1,-2.747558594E0
1.581012260E1,1.308275819E0,-1.114277649E1,-1.118644595E0
1.582012260E1,1.067797065E0,-1.022991467E1,-7.088736892E-1
1.583012260E1,1.232303619E0,-9.429515839E0,-1.067198873E0
1.584012260E1,1.244267821E0,-8.499904633E0,-7.070791125E-1
1.585012260E1,8.027920127E-1,-7.165905476E0,-4.791627228E-1
1.586012260E1,-7.286145091E-1,-4.354339123E0,-2.033899166E-2
1.587012260E1,-1.344766378E0,-3.512663603E0,4.929214716E-1
1.588012260E1,-1.829911113E0,-3.393022537E0,6.221339107E-1
1.589012260E1,-1.783849239E0,-3.323630571E0,3.649054468E-1
1.590012260E1,-1.293320656E0,-2.563909531E0,5.940182209E-1
1.591012260E1,-1.316052489E-2,-5.718846321E-1,5.688936114E-1
1.592012260E1,1.506281853E0,7.256234884E-1,2.877369225E-1
1.593012260E1,3.245863914E0,1.848455548E0,6.705885530E-1
1.594012260E1,4.202992916E0,2.264208317E0,7.447660565E-1
1.595012260E1,4.687539577E0,2.139781713E0,-1.066002488E0
1.596012260E1,8.343772888E0,-2.017149448E0,-2.625524759E0
1.597012260E1,7.387839794E0,-3.284747362E0,7.226324677E-1
1.598012260E1,5.310869694E0,-2.833101988E0,1.301097274E0
1.599012260E1,3.755535126E0,-1.920838356E0,1.753340840E0
1.600012260E1,2.768495798E0,-1.200598717E0,2.525026083E0
1.601012260E1,1.258026481E0,-1.029511929E0,1.270588875E0
1.602012260E1,-9.661021233E-1,-2.208575249E0,-2.686541557E0
1.603012260E1,-1.372283816E0,-3.574877024E0,-2.830111027E0
1.604012260E1,-1.281954765E0,-5.952744484E0,-2.299502611E0
1.605012260E1,-2.305484533E0,-1.168534946E1,-1.263410330E0
1.606012260E1,-2.270190477E0,-1.723490334E1,1.510469317E0
1.607012260E1,-3.454039574E0,-2.997967529E1,3.125026464E0
1.608012260E1,-4.012165546E0,-3.559204102E1,1.759322882E0
1.609012260E1,-1.667797327E0,-3.313939667E1,2.152343988E0
1.610012260E1,2.108076811E0,-2.408794785E1,3.273979664E0
1.611012260E1,4.234697819E0,-1.677667809E1,4.670191765E0
1.612012260E1,4.234697819E0,-1.677667809E1,4.670191765E0
1.613012260E1,2.743969440E0,-9.576076508E0,1.829911113E0
1.614012260E1,4.977070987E-1,-1.157767200E1,2.079961061E0
1.615012260E1,-1.342971683E0,-1.384606838E1,3.096910715E0
1.616012260E1,-2.307279348E0,-1.517587948E1,3.393022537E0
1.617012260E1,-3.318246841E0,-1.839961052E1,3.443870068E0
1.618012260E1,-3.318246841E0,-1.839961052E1,3.443870068E0
1.619012260E1,-3.739383698E0,-1.812623024E1,1.131805062E0
1.620012260E1,-3.789632797E0,-1.775055695E1,6.340979785E-2
1.621012260E1,-3.375674486E0,-1.688016701E1,-4.743770957E-1
1.622012260E1,-3.375674486E0,-1.688016701E1,-4.743770957E-1
1.623012260E1,1.740778536E-1,-1.231585789E1,-7.890332937E-1
1.624012260E1,2.360519648E0,-1.099382401E1,-1.714457393E0
1.625012260E1,4.197010994E0,-9.550951958E0,-4.375276089E0
1.626012260E1,5.383851051E0,-8.587840080E0,-7.194619656E0
1.627012260E1,5.708676815E0,-7.938787460E0,-8.092526436E0
1.628012260E1,5.471786976E0,-6.395416737E0,-4.636692047E0
1.629012260E1,4.758127689E0,-5.535196781E0,-2.291725874E0
1.630012260E1,3.336193085E0,-4.923232555E0,-7.537391037E-2
1.631012260E1,2.149951220E0,-4.617549419E0,-1.617548108E0
1.632012260E1,2.268395901E0,-4.010969162E0,-5.173880577E0
1.633012260E1,2.865405083E0,-1.892722726E0,-5.812166214E0
1.634012260E1,3.588635683E0,-1.118046403E0,-5.301896572E0
1.635012260E1,3.077768087E0,-8.853443861E-1,-5.028516769E0
1.636012260E1,2.593819857E0,-3.571287692E-1,-4.108476639E0
1.637012260E1,2.933002472E0,1.118644550E-1,-2.894717216E0
1.638012260E1,2.933002472E0,1.118644550E-1,-2.894717216E0
1.639012260E1,4.216751575E0,8.135597110E-1,-8.865407705E-1
1.640012260E1,4.547559261E0,5.174478889E-1,-1.740778536E-1
1.641012260E1,4.874777794E0,-2.901297510E-1,1.728814393E-1
1.642012260E1,5.080560684E0,-1.843669891E0,3.403790295E-1
1.643012260E1,5.080560684E0,-1.843669891E0,3.403790295E-1
1.644012260E1,4.290330887E0,-8.277371407E0,3.491726398E0
1.645012260E1,4.301098824E0,-9.466006279E0,4.411766529E0
1.646012260E1,6.105885029E0,-1.344885921E1,4.837689400E0
1.647012260E1,4.316651821E0,-1.992682838E1,6.404987812E0
1.648012260E1,-4.065405846E0,-2.751147842E1,1.216211891E1
1.649012260E1,-7.858029366E0,-3.233062363E1,7.603193760E0
1.650012260E1,-8.808578491E0,-3.383869934E1,-3.586841106E0
1.651012260E1,-8.289336205E0,-3.068136978E1,-9.790832520E0
1.652012260E1,-7.503891945E0,-2.758445930E1,-1.106441212E1
1.653012260E1,-4.225126743E0,-2.301536369E1,-4.734199524E0
1.654012260E1,-1.363310695E0,-2.141875458E1,-2.404188633E0
1.655012260E1,1.398006678E0,-1.987598038E1,6.520441771E-1
1.656012260E1,5.941977024E0,-1.813340759E1,4.697110653E0
1.657012260E1,1.260658646E1,-1.669053650E1,2.947957516E0
1.658012260E1,1.311625767E1,-1.604447365E1,-6.580262445E-3
1.659012260E1,5.801996708E0,-1.348594856E1,-1.978266120E0
1.660012260E1,4.781457901E0,-1.218724346E1,-1.877169371E0
1.661012260E1,5.079364300E0,-1.151545906E1,-1.698305845E0
1.662012260E1,5.052444935E0,-1.103988552E1,-1.231705427E0
1.663012260E1,3.811766386E0,-1.001695347E1,-8.769695163E-1
1.664012260E1,6.945167780E-1,-6.562914371E0,-5.437689424E-1
1.665012260E1,-1.089930773E0,-5.114658356E0,-1.012163997E0
1.666012260E1,-2.599801779E0,-3.716651678E0,-1.228714466E0
1.667012260E1,-3.410370588E0,-2.940180779E0,-1.171286702E0
1.668012260E1,-3.976871252E0,-2.489732027E0,-7.310073376E-1
1.669012260E1,-2.837289333E0,-1.585843205E0,-8.398807645E-1
1.670012260E1,-2.837289333E0,-1.585843205E0,-8.398807645E-1
1.671012260E1,-1.670190215E0,3.499503136E-1,3.421736360E-1
1.672012260E1,-1.670190215E0,3.499503136E-1,3.421736360E-1
1.673012260E1,-1.670190215E0,3.499503136E-1,3.421736360E-1
1.674012260E1,-1.670190215E0,3.499503136E-1,3.421736360E-1
1.675012260E1,-4.971089065E-1,1.439880967E0,-3.888336942E-2
1.676012260E1,6.958926678E0,5.922235966E0,-1.819143414E0
1.677012260E1,9.351150513E0,3.239881754E0,1.055234790E0
1.678012260E1,7.286144733E0,-4.719842672E-1,3.566502094E0
1.679012260E1,5.606383324E0,-1.933400750E0,2.094916344E0
1.680012260E1,3.236292601E0,-2.669791937E0,1.561316848E-1
1.681012260E1,1.094716340E-1,-1.436890006E0,-5.220541000E0
1.682012260E1,-1.192822099E0,-3.162115097E0,-6.548557281E0
1.683012260E1,-3.094517946E0,-8.461020470E0,-4.396213531E0
1.684012260E1,-3.448057413E0,-1.594995785E1,2.210369825E0
1.685012260E1,-2.120040894E0,-2.354896355E1,5.265406132E0
1.686012260E1,-8.803792953E0,-4.261916351E1,3.541377485E-1
1.687012260E1,-1.125045395E1,-4.992624283E1,2.175075769E0
1.688012260E1,-5.935396671E0,-3.584089279E1,-9.661021233E-1
1.689012260E1,1.854437590E-2,-2.071526337E1,8.913264275E-1
1.690012260E1,1.723430514E0,-1.256889915E1,1.806581140E0
1.691012260E1,3.632304668E0,-7.517650604E0,9.218349457E-1
1.692012260E1,3.632304668E0,-7.517650604E0,9.218349457E-1
1.693012260E1,4.283750534E0,-6.872784615E0,1.943570137E0
1.694012260E1,4.028316975E0,-8.775676727E0,3.089133978E0
1.695012260E1,3.160320520E0,-1.136291695E1,3.519842148E0
1.696012260E1,8.632107973E-1,-1.468834209E1,1.574477315E0
1.697012260E1,-6.915257573E-1,-1.477687645E1,9.930213690E-1
1.698012260E1,-1.505683661E0,-1.448255920E1,4.319044948E-1
1.699012260E1,-1.558923960E0,-1.434616852E1,8.733802289E-2
1.700012260E1,-1.138385415E0,-1.402493191E1,9.631111473E-2
1.701012260E1,5.102694035E-1,-1.223868942E1,1.136590764E-1
1.702012260E1,1.479960799E0,-1.140239811E1,-3.655036688E-1
1.703012260E1,2.382055044E0,-1.063609695E1,-1.022931695E0
1.704012260E1,3.050250769E0,-9.675976753E0,-1.435693622E0
1.705012260E1,3.437289715E0,-8.852247238E0,-1.486541033E0
1.706012260E1,4.112065792E0,-7.390830994E0,-9.332008362E-1
1.707012260E1,3.690330744E0,-6.787241459E0,-1.060618639E0
1.708012260E1,2.402992249E0,-6.180062771E0,-1.841875196E0
1.709012260E1,1.037886858E0,-5.906084538E0,-2.980260611E0
1.710012260E1,-8.913264424E-2,-5.678766251E0,-5.070989609E0
1.711012260E1,-7.938188910E-1,-5.369493961E0,-8.629714966E0
1.712012260E1,8.650053740E-1,-4.320839405E0,-1.156630611E1
1.713012260E1,1.925025821E0,-3.577269793E0,-9.369096756E0
1.714012260E1,2.312064886E0,-3.256033421E0,-6.430112839E0
1.715012260E1,2.310270309E0,-3.083152056E0,-1.942373753E0
1.716012260E1,1.866401672E0,-2.866601467E0,1.572084427E0
1.717012260E1,4.560121536E0,-2.015953064E0,-1.555334777E-1
1.718012260E1,6.044270039E0,-1.956132531E0,-1.882553220E0
1.719012260E1,6.345167637E0,-1.372882009E0,-1.753340840E0
1.720012260E1,5.653043270E0,-9.188438654E-1,-9.056833982E-1
1.721012260E1,4.913661480E0,-1.201795220E0,-1.537388563E-1
1.722012260E1,4.467998028E0,-2.377867460E0,1.834098577E0
1.723012260E1,4.331607342E0,-3.538386583E0,2.894119024E0
1.724012260E1,3.946362734E0,-5.624927998E0,3.616751432E0
1.725012260E1,4.612165451E0,-7.500900745E0,3.712464333E0
1.726012260E1,6.061617851E0,-1.065942669E1,3.152543783E0
1.727012260E1,8.465806961E0,-2.397727966E1,4.719244480E0
1.728012260E1,5.492724419E0,-2.532084846E1,1.321795273E1
1.729012260E1,-1.609771490E0,-2.715853691E1,1.759382629E1
1.730012260E1,-9.106484413E0,-2.982593536E1,1.458425426E1
1.731012260E1,-1.307617760E1,-2.977987480E1,8.339585304E0
1.732012260E1,-4.817350388E0,-2.343111801E1,-9.243474007E0
1.733012260E1,-4.782055855E0,-2.347957230E1,-8.386843681E0
1.734012260E1,-4.286741734E0,-2.314577293E1,-6.591628075E0
1.735012260E1,-3.476173162E0,-2.255295181E1,-4.841876507E0
1.736012260E1,-2.961716175E0,-2.131586266E1,-2.868994236E0
1.737012260E1,1.387837082E-1,-1.960918236E1,1.588235974E0
1.738012260E1,7.301100254E0,-1.643330765E1,2.076371908E0
1.739012260E1,7.328617573E0,-1.489651775E1,-1.059422255E0
1.740012260E1,6.008377552E0,-1.422353554E1,-3.952943087E0
1.741012260E1,5.276772022E0,-1.281894875E1,-3.649652719E0
1.742012260E1,4.640879631E0,-1.222852039E1,-3.246462107E0
1.743012260E1,3.699303865E0,-1.103689480E1,-2.624328136E0
1.744012260E1,3.012563705E0,-1.002532864E1,-1.466800332E0
1.745012260E1,2.410768747E0,-8.395217896E0,-5.150550604E-1
1.746012260E1,1.760519266E0,-7.239484787E0,-1.657029688E-1
1.747012260E1,1.130608678E0,-6.302694798E0,6.951149702E-1
1.748012260E1,-2.709871531E-1,-4.081557274E0,1.206580877E0
1.749012260E1,-8.835497499E-1,-3.244667530E0,1.171286702E0
1.750012260E1,-1.386042476E0,-2.429911375E0,1.006780148E0
1.751012260E1,-1.521237016E0,-1.575075507E0,4.468596280E-1
1.752012260E1,-1.564906001E0,-6.939185858E-1,3.661018610E-1
1.753012260E1,-1.033699393E0,8.428717852E-1,1.138983607E0
1.754012260E1,-2.829512656E-1,1.570888042E0,1.175474167E0
1.755012260E1,6.586244106E-1,2.393420935E0,1.328016520E0
1.756012260E1,1.357328653E0,3.429512978E0,1.801795483E0
1.757012260E1,1.639681697E0,4.146163464E0,2.065604210E0
1.758012260E1,2.757728100E-1,3.131008387E0,1.259222865E0
1.759012260E1,3.110669367E-2,2.518445730E0,4.498506486E-1
1.760012260E1,-1.429711580E-1,2.017149448E0,-5.114658475E-1
1.761012260E1,-5.030909777E-1,1.449452281E0,-1.651645780E0
1.762012260E1,-9.828519225E-1,5.760720372E-1,-2.870190859E0
1.763012260E1,-1.435693622E0,-2.315055847E0,-5.806782246E0
1.764012260E1,-1.837687731E0,-4.846064091E0,-6.767500877E0
1.765012260E1,-3.166900873E0,-9.826724052E0,-7.939385414E0
1.766012260E1,-3.573680639E0,-1.585663700E1,-4.201198578E0
1.767012260E1,-1.909472466E0,-2.407897377E1,2.069193363E0
1.768012260E1,-6.239284873E-1,-3.267698288E1,4.930410862E0
1.769012260E1,-4.520640373E0,-4.158187485E1,5.663811207E0
1.770012260E1,-3.485744476E0,-2.631805801E1,2.536990166E0
1.771012260E1,-2.304886341E0,-1.581416512E1,-1.639083475E-1
1.772012260E1,-1.543968797E0,-1.119781208E1,-1.309472203E0
1.773012260E1,-7.124629617E-1,-9.532406807E0,-1.142572761E0
1.774012260E1,2.111665964E0,-1.011266708E1,1.094716340E-1
1.775012260E1,3.686143398E0,-1.071087265E1,1.064806104E0
1.776012260E1,4.572684288E0,-1.227936745E1,1.780858278E0
1.777012260E1,5.775077343E0,-1.371924877E1,2.605185747E0
1.778012260E1,6.948158741E0,-1.555932903E1,3.100499868E0
1.779012260E1,7.250252724E0,-1.689392662E1,3.055036306E0
1.780012260E1,5.258825779E0,-1.641057587E1,1.987239242E0
1.781012260E1,3.229114056E0,-1.580698681E1,8.626125455E-1
1.782012260E1,1.682752490E0,-1.479123306E1,-2.476571500E-1
1.783012260E1,1.758724600E-1,-1.361516094E1,-2.267199457E-1
1.784012260E1,-1.900499344E0,-1.211785221E1,-4.456632137E-1
1.785012260E1,-2.288734913E0,-1.140120125E1,-1.007378340E0
1.786012260E1,-2.444268227E0,-1.052004433E1,-1.926820397E0
1.787012260E1,-2.374278307E0,-9.361320496E0,-2.723630428E0
1.788012260E1,-2.352144718E0,-8.179265976E0,-3.448655605E0
1.789012260E1,-1.686341763E0,-5.374877930E0,-4.912465096E0
1.790012260E1,-9.708877802E-1,-4.625924587E0,-5.910272121E0
1.791012260E1,3.332005441E-1,-4.396811485E0,-6.401997089E0
1.792012260E1,2.304288149E0,-4.431507587E0,-5.906084538E0
1.793012260E1,3.807579041E0,-4.269991875E0,-4.850849628E0
1.794012260E1,4.331607342E0,-4.012763500E0,-3.022733212E0
1.795012260E1,4.241876125E0,-3.779463291E0,-2.130808592E0
1.796012260E1,3.683750391E0,-3.439682484E0,-1.364507079E0
1.797012260E1,2.546561480E0,-3.553341627E0,-9.918249846E-1
1.798012260E1,2.440679073E0,-3.207578659E0,-1.167099237E0
1.799012260E1,3.013161898E0,-2.720639229E0,-1.664208174E0
1.800012260E1,4.708476543E0,-1.496112347E0,-2.823530674E0
1.801012260E1,5.079962254E0,-1.093519926E0,-3.690928936E0
1.802012260E1,4.936393261E0,-1.170688510E0,-3.634697676E0
1.803012260E1,4.110869408E0,-1.574477315E0,-2.667997360E0
1.804012260E1,3.295515060E0,-1.960918188E0,-1.490728498E0
1.805012260E1,1.345962763E0,-4.507479668E0,1.368096352E0
1.806012260E1,9.786644578E-1,-6.365506649E0,1.565504193E0
1.807012260E1,6.496513486E-1,-7.788637638E0,1.713261008E0
1.808012260E1,2.297109663E-1,-9.455238342E0,1.840080619E0
1.809012260E1,2.368894368E-1,-1.281595802E1,2.024327993E0
1.810012260E1,1.366899967E0,-2.511985207E1,8.137392044E0
1.811012260E1,-2.377269268E0,-2.850449944E1,1.006002426E1
1.812012260E1,-6.961917400E0,-3.014657402E1,4.271188259E0
1.813012260E1,-9.256035805E0,-2.909014320E1,-3.517449200E-1
1.814012260E1,-6.954739094E0,-2.496790695E1,-4.066003799E0
1.815012260E1,-3.960121393E0,-2.442174530E1,-6.086144447E0
1.816012260E1,-2.009970993E-1,-2.235733795E1,-5.033900738E0
1.817012260E1,2.818745136E0,-2.065364838E1,-3.163311481E0
1.818012260E1,3.723232031E0,-2.015893173E1,-2.562713146E0
1.819012260E1,5.912066460E0,-1.968993950E1,-3.034697294E0
1.820012260E1,5.696712494E0,-1.714158249E1,3.948157430E-1
1.821012260E1,6.238088608E0,-1.543729496E1,-1.129412293E0
1.822012260E1,6.227919102E0,-1.429771328E1,-4.296911240E0
1.823012260E1,5.090131760E0,-1.392203999E1,-4.054637909E0
1.824012260E1,3.160320520E0,-1.347817135E1,-2.613560438E0
1.825012260E1,4.064209461E0,-1.043031406E1,-1.590030670E0
1.826012260E1,2.879761934E0,-9.533005714E0,-5.976074338E-1
1.827012260E1,9.379864931E-1,-8.032107353E0,-6.047859192E-1
1.828012260E1,-2.727817893E-1,-6.223731518E0,-6.556333899E-1
1.829012260E1,-1.173081279E0,-4.432703972E0,-8.967102766E-1
1.830012260E1,-1.953141451E0,-3.385843992E0,-7.782655358E-1
1.831012260E1,-3.038286448E0,-1.987837434E0,-2.895315289E-1
1.832012260E1,-3.320041418E0,-1.873580098E0,-2.279163599E-1
1.833012260E1,-2.899502754E0,-1.561915040E0,-3.008974493E-1
1.834012260E1,-1.957328916E0,-9.170492887E-1,5.144568533E-2
1.835012260E1,-6.221339107E-1,2.697907388E-1,9.457631707E-1
1.836012260E1,2.076371908E0,2.515454769E0,2.636292458E0
1.837012260E1,2.823530674E0,3.166302681E0,3.491128206E0
1.838012260E1,3.646063566E0,4.083351612E0,3.945166349E0
1.839012260E1,3.940979004E0,4.332803726E0,3.129213810E0
1.840012260E1,4.383651257E0,4.765306473E0,2.152343988E0
1.841012260E1,3.498904943E0,2.419143677E0,-1.620539188E0
1.842012260E1,1.819741607E0,6.101697683E-1,-2.562713146E0
1.843012260E1,1.092323542E0,-9.092725813E-2,-3.053241730E0
1.844012260E1,5.856433511E-1,-4.737788737E-1,-3.139383316E0
1.845012260E1,8.853443712E-2,-8.961120844E-1,-2.971287489E0
1.846012260E1,-1.488933921E0,-3.893122435E0,-3.824927092E0
1.847012260E1,-2.507678032E0,-8.087141991E0,-5.148158073E0
1.848012260E1,-4.067798615E0,-1.459980774E1,-1.747956991E0
1.849012260E1,-3.410370588E0,-2.110290146E1,3.475574970E0
1.850012260E1,-2.822334290E0,-2.951786041E1,3.759722471E0
1.851012260E1,-7.287341595E0,-4.138805389E1,1.171884894E0
1.852012260E1,-5.739185333E0,-3.206202698E1,8.793623000E-2
1.853012260E1,-3.134597778E0,-2.130270195E1,-4.701896608E-1
1.854012260E1,-1.865205288E0,-1.544088459E1,-1.740778536E-1
1.855012260E1,-8.434699774E-1,-1.243250847E1,-4.576273263E-1
1.856012260E1,-3.110669367E-2,-1.050927734E1,-2.889333367E-1
1.857012260E1,2.635694027E0,-9.641879082E0,2.197209358E0
1.858012260E1,4.048655987E0,-1.009950638E1,3.559921980E0
1.859012260E1,4.964509010E0,-1.013121128E1,4.961517811E0
1.860012260E1,5.291727066E0,-1.096092224E1,6.044270039E0
1.861012260E1,4.805386066E0,-1.381735420E1,5.809175014E0
1.862012260E1,1.888535261E0,-1.892842293E1,4.639683247E0
1.863012260E1,1.178465128E0,-1.983650017E1,2.864208698E0
1.864012260E1,1.450050473E0,-1.903490448E1,2.573480844E0
1.865012260E1,1.249651670E0,-1.847617912E1,2.729612350E0
1.866012260E1,1.322034478E0,-1.774457359E1,4.935196638E-1
1.867012260E1,2.456830740E0,-1.374437332E1,-3.005385160E0
1.868012260E1,2.846860647E0,-1.255214977E1,-3.762713671E0
1.869012260E1,3.284149170E0,-1.130369377E1,-5.136792183E0
1.870012260E1,2.767897606E0,-9.640084267E0,-1.019940662E1
1.871012260E1,7.722834945E-1,-8.218149185E0,-1.657149315E1
1.872012260E1,4.606183469E-1,-6.637091637E0,-1.081675434E1
1.873012260E1,1.191027522E0,-5.817550182E0,-5.632106304E0
1.874012260E1,2.389233351E0,-4.736592293E0,-8.799605370E-1
1.875012260E1,2.023131609E0,-4.491328239E0,4.127618968E-1
1.876012260E1,2.038684845E0,-3.635894060E0,-1.606780410E0
1.877012260E1,2.983849764E0,-1.748555183E0,-1.768295884E0
1.878012260E1,2.984447956E0,-9.224331379E-1,-1.499701619E0
1.879012260E1,3.427120209E0,2.207378894E-1,-2.056032896E0
1.880012260E1,3.804588079E0,1.088734269E0,-2.288734913E0
1.881012260E1,4.100699902E0,1.414756417E0,-2.400001049E0
1.882012260E1,4.332205296E0,1.052842021E0,-1.094118118E0
1.883012260E1,4.065405846E0,5.718846321E-1,-7.393822074E-1
1.884012260E1,3.912265062E0,-8.255238086E-2,-9.786644578E-1
1.885012260E1,3.783052683E0,-9.553344250E-1,-1.439880967E0
1.886012260E1,3.247658491E0,-2.065006018E0,-1.668993831E0
1.887012260E1,2.568695068E0,-3.643072367E0,-1.949552298E0
1.888012260E1,2.265404940E0,-7.188039303E0,-1.427318692E0
1.889012260E1,3.223730326E0,-9.574281693E0,-8.644071817E-1
1.890012260E1,5.358726501E0,-1.476132298E1,-7.166503668E-1
1.891012260E1,5.268995285E0,-1.997109604E1,1.261017561E0
1.892012260E1,2.456830740E0,-2.168794632E1,5.946164131E0
1.893012260E1,-6.372086525E0,-2.901297379E1,1.130070305E1
1.894012260E1,-1.225843048E1,-3.521577072E1,6.766304016E0
1.895012260E1,-1.469611835E1,-3.664368439E1,-1.565504193E0
1.896012260E1,-1.171944714E1,-2.980858803E1,-6.610172749E0
1.897012260E1,-6.901498795E0,-2.512463760E1,-9.607182503E0
1.898012260E1,4.677968323E-1,-2.290409851E1,-5.575874805E0
1.899012260E1,1.442273855E0,-2.168495560E1,-3.002394199E0
1.900012260E1,6.313462734E0,-1.911027718E1,-6.101697683E-2
1.901012260E1,8.618349075E0,-1.830030823E1,3.089732170E0
1.902012260E1,9.311669350E0,-1.742991829E1,3.260818958E0
1.903012260E1,6.912864685E0,-1.667079544E1,-1.307079315E0
1.904012260E1,4.545166492E0,-1.631605911E1,-1.644467354E0
1.905012260E1,3.653241873E0,-1.386102295E1,-2.494517565E0
1.906012260E1,3.543172121E0,-1.123370457E1,-1.750349760E0
1.907012260E1,1.666002750E0,-8.852845192E0,-1.046859920E-1
1.908012260E1,-8.590233326E-1,-5.272584915E0,1.000199914E0
1.909012260E1,-2.275574446E0,-3.835096598E0,5.778666735E-1
1.910012260E1,-3.281756163E0,-2.433500528E0,-2.452643216E-1
1.911012260E1,-4.290929317E0,-1.588235974E0,-7.657032460E-2
1.912012260E1,-5.098506927E0,-1.155135155E0,1.770688742E-1
1.913012260E1,-5.027918816E0,3.397808075E-1,-1.052841991E-1
1.914012260E1,-4.378267288E0,8.069794178E-1,-4.301098585E-1
1.915012260E1,-3.518645763E0,1.373480201E0,-5.814558864E-1
1.916012260E1,-2.489732027E0,2.380260229E0,8.374879137E-3
1.917012260E1,-1.360917926E0,3.769293785E0,7.495517135E-1
1.918012260E1,-1.453639716E-1,5.605785370E0,1.823929071E0
1.919012260E1,1.128814101E0,7.179664135E0,3.586841106E0
1.920012260E1,1.898704767E0,6.782455921E0,7.381857634E-1
1.921012260E1,4.083351612E0,4.057030678E0,-6.185446739E0
1.922012260E1,8.531609535E0,1.109671474E0,-3.467200041E0
1.923012260E1,7.636095047E0,-1.736590981E0,7.585247755E-1
1.924012260E1,3.259622574E0,-2.919841766E0,-4.247260094E-1
1.925012260E1,2.081157446E0,-2.321636200E0,-1.344766378E0
1.926012260E1,1.557727575E0,-1.805384636E0,-2.784647465E0
1.927012260E1,4.115654826E-1,-3.099303484E0,-4.947160721E0
1.928012260E1,-1.240080357E0,-7.173682213E0,-7.177869797E0
1.929012260E1,-3.589832067E0,-2.511985207E1,6.765705943E-1
1.930012260E1,-3.579662561E0,-3.401098251E1,1.329213023E0
1.931012260E1,-6.925426960E0,-4.270590210E1,-5.623133108E-2
1.932012260E1,-8.829515457E0,-4.297090912E1,-7.399803996E-1
1.933012260E1,-4.565505505E0,-3.031347275E1,-8.392825127E-1
1.934012260E1,-1.280160069E0,-1.503530121E1,8.506484628E-1
1.935012260E1,1.304088384E-1,-1.204247856E1,1.526022673E0
1.936012260E1,1.803590059E0,-1.091785145E1,1.802991867E0
1.937012260E1,3.439084291E0,-1.072104168E1,1.925624013E0
1.938012260E1,5.031507969E0,-1.009830952E1,2.055434704E0
1.939012260E1,6.480361938E0,-7.399205685E0,2.978466034E0
1.940012260E1,5.274977684E0,-9.365508080E0,4.967499733E0
1.941012260E1,3.573082447E0,-1.290867996E1,4.292125702E0
1.942012260E1,3.333201885E0,-1.447238922E1,3.285345554E0
1.943012260E1,2.589034081E0,-1.545464325E1,4.109074593E0
1.944012260E1,6.598208547E-1,-1.626760483E1,5.293521881E0
1.945012260E1,-7.800601721E-1,-1.922812462E1,4.067200184E0
1.946012260E1,2.781656384E-1,-1.743769455E1,2.526820660E0
1.947012260E1,1.064207911E0,-1.490549088E1,1.817947030E0
1.948012260E1,1.621137381E0,-1.321316624E1,6.622136831E-1
1.949012260E1,2.172683001E0,-1.137129116E1,-6.311069727E-1
1.950012260E1,2.511865616E0,-9.038289070E0,-3.209971666E0
1.951012260E1,1.797608018E0,-7.637889862E0,-3.769293785E0
1.952012260E1,4.953143001E-1,-6.629314899E0,-4.500301361E0
1.953012260E1,-1.898106575E0,-6.009573936E0,-5.903691769E0
1.954012260E1,-4.797609329E0,-6.400202274E0,-1.266461182E1
1.955012260E1,-2.109273195E0,-5.816353798E0,-2.058964157E1
1.956012260E1,7.004988194E-1,-5.416752338E0,-1.303430271E1
1.957012260E1,2.664407969E0,-4.098905087E0,-4.743771076E0
1.958012260E1,4.441078663E0,-2.585444927E0,2.857628345E0
1.959012260E1,4.197010994E0,-2.018345833E0,5.517848969E0
1.960012260E1,3.437289715E0,-1.447059512E0,3.531208038E0
1.961012260E1,4.158725739E0,-4.510470629E-1,5.186443329E-1
1.962012260E1,5.349154949E0,8.973085135E-2,-2.331805706E0
1.963012260E1,6.068198204E0,5.270192027E-1,-4.036093712E0
1.964012260E1,5.797809124E0,3.206382394E-1,-5.441278458E0
1.965012260E1,3.406183004E0,-1.424327731E0,-3.814159393E0
1.966012260E1,3.202793121E0,-2.416750908E0,-2.834896564E0
1.967012260E1,3.327818155E0,-3.671786308E0,-2.598007202E0
1.968012260E1,3.482155085E0,-5.014758110E0,-2.093719721E0
1.969012260E1,3.407977581E0,-6.498906136E0,-1.261017561E0
1.970012260E1,2.583650351E0,-9.631111145E0,-2.542374134E-1
1.971012260E1,3.162713289E0,-1.244088268E1,-8.829515576E-1
1.972012260E1,4.328018188E0,-1.692802429E1,-2.703889608E-1
1.973012260E1,2.846262455E0,-1.850369835E1,2.730808735E0
1.974012260E1,2.572284266E-2,-2.068535423E1,5.286941528E0
1.975012260E1,-2.916850805E0,-2.360878372E1,6.300900459E0
1.976012260E1,-1.188395405E1,-3.209492874E1,2.961117983E0
1.977012260E1,-1.238525009E1,-3.037568665E1,-1.779661894E0
1.978012260E1,-1.141615677E1,-2.604168701E1,-4.444668293E0
1.979012260E1,-9.238089561E0,-2.242553329E1,-7.635497093E0
1.980012260E1,-5.171487808E0,-2.097368813E1,-8.803194046E0
1.981012260E1,6.221338734E-2,-2.062014961E1,-4.279563427E0
1.982012260E1,1.141974568E0,-1.950030899E1,-1.826321840E0
1.983012260E1,5.724828243E0,-1.787079620E1,-1.028913707E-1
1.984012260E1,1.077847004E1,-1.811247063E1,-5.928218365E-1
1.985012260E1,1.116072273E1,-1.842652893E1,-8.470591903E-1
1.986012260E1,8.885149002E0,-1.437009621E1,7.262216806E-1
1.987012260E1,4.588835716E0,-1.483968830E1,-3.574278831E0
1.988012260E1,1.123430252E0,-1.366241932E1,-5.510072231E0
1.989012260E1,1.926820397E0,-1.121695423E1,-4.634299278E0
1.990012260E1,1.590628862E0,-9.240483284E0,-2.362912416E0
1.991012260E1,-7.722834945E-1,-5.676971912E0,-1.616351724E0
1.992012260E1,-1.623530149E0,-4.000201225E0,-1.244866014E0
1.993012260E1,-2.020140409E0,-2.845066071E0,-8.033902049E-1
1.994012260E1,-2.560320139E0,-2.191825628E0,-5.479564071E-1
1.995012260E1,-2.818146944E0,-1.758724689E0,-1.962114573E-1
1.996012260E1,-3.491128206E0,-2.499303341E0,3.421736360E-1
1.997012260E1,-3.439682484E0,-2.419143677E0,-2.315055877E-1
1.998012260E1,-2.938386202E0,-1.764706731E0,-7.334001660E-1
1.999012260E1,-1.738983870E0,-3.523431420E-1,-6.478567123E-1
2.000012260E1,-2.518445849E-1,1.296909928E0,-2.051845491E-1
2.001012260E1,1.613958836E0,3.410968781E0,9.882357717E-1
2.002012260E1,2.652443886E0,4.339384079E0,1.917847395E0
2.003012260E1,3.886542082E0,4.544568539E0,2.124826431E0
2.004012260E1,5.509474277E0,3.387040377E0,-2.392822644E-3
2.005012260E1,7.324429989E0,1.753340840E0,-1.729412556E0
2.006012260E1,6.489335060E0,-5.324030519E-1,-1.383649707E0
2.007012260E1,2.971287489E0,-1.472184181E0,-8.093722463E-1
2.008012260E1,1.537388563E0,-1.322034478E0,-5.168496966E-1
2.009012260E1,5.850451589E-1,-8.249256015E-1,-5.413761139E-1
2.010012260E1,-1.429711580E-1,-1.184447169E0,-1.341177106E0
2.011012260E1,-9.182456732E-1,-3.461217880E0,-2.378465652E0
2.012012260E1,-3.087339401E0,-1.373061466E1,-1.374676585E0
2.013012260E1,-4.613361835E0,-2.180340004E1,4.333401680E0
2.014012260E1,-6.095715523E0,-3.034517860E1,4.814359188E0
2.015012260E1,-8.642875671E0,-3.664069366E1,4.017549038E0
2.016012260E1,-9.081958771E0,-3.928057480E1,6.520441771E-1
2.017012260E1,-4.649852753E0,-2.138345909E1,7.178467698E-3
2.018012260E1,-3.661018610E0,-1.558385563E1,1.000798106E0
2.019012260E1,-1.759322882E0,-1.306182098E1,5.736792088E-1
2.020012260E1,7.483552694E-1,-1.167458153E1,-4.947160780E-1
2.021012260E1,2.823530674E0,-1.101416302E1,-2.620140910E-1
2.022012260E1,3.600599766E0,-1.098963642E1,1.239482164E0
2.023012260E1,3.598206997E0,-1.257428265E1,2.067398787E0
2.024012260E1,3.714258909E0,-1.372642708E1,2.663809776E0
2.025012260E1,3.597608805E0,-1.391785336E1,4.137190342E0
2.026012260E1,2.834896564E0,-1.413918877E1,5.765506268E0
2.027012260E1,1.325623751E0,-1.507717514E1,6.361917019E0
2.028012260E1,1.497308731E0,-1.482712555E1,6.177670002E0
2.029012260E1,1.820937991E0,-1.398903942E1,5.379663467E0
2.030012260E1,2.101496458E0,-1.339023590E1,4.536791801E0
2.031012260E1,2.477169752E0,-1.339801216E1,3.513859987E0
2.032012260E1,3.188436270E0,-1.302054405E1,2.949153900E0
2.033012260E1,3.162115097E0,-1.312941742E1,1.325025558E0
2.034012260E1,3.154338360E0,-1.282792187E1,-2.488535494E-1
2.035012260E1,3.379263878E0,-1.153878880E1,-2.748754978E0
2.036012260E1,3.567100286E0,-9.256634712E0,-4.127020836E0
2.037012260E1,3.575475216E0,-7.643273830E0,-4.226921082E0
2.038012260E1,2.227119684E0,-6.540780544E0,-6.901498795E0
2.039012260E1,1.260419369E0,-6.202794552E0,-1.587697601E1
2.040012260E1,2.176870346E0,-5.459224701E0,-2.204567337E1
2.041012260E1,3.375674486E0,-4.962115765E0,-1.725883102E1
2.042012260E1,3.574278831E0,-4.863411903E0,-7.144370079E0
2.043012260E1,3.291327477E0,-4.951348305E0,3.771686792E0
2.044012260E1,3.324826956E0,-4.947160721E0,3.795614958E0
2.045012260E1,3.172284603E0,-4.663611412E0,1.383649707E0
2.046012260E1,3.239283562E0,-3.713660717E0,-1.320239902E0
2.047012260E1,3.497708559E0,-2.572882652E0,-3.754338741E0
2.048012260E1,3.949353695E0,-3.948157430E-1,-4.615156651E0
2.049012260E1,3.699902058E0,2.524427772E-1,-4.803591251E0
2.050012260E1,3.509074450E0,3.756731451E-1,-4.601995945E0
2.051012260E1,3.472583771E0,-4.869394004E-1,-3.659822226E0
2.052012260E1,2.801397085E0,-2.242672920E0,-2.370688915E0
2.053012260E1,2.525026083E0,-5.425725460E0,-2.691925503E-2
2.054012260E1,2.425724030E0,-7.088139057E0,2.063809484E-1
2.055012260E1,2.023729801E0,-9.164510727E0,-7.034898400E-1
2.056012260E1,3.242274761E0,-1.447896957E1,-2.509472847E0
2.057012260E1,4.244269371E0,-2.051366806E1,-2.447857618E0
2.058012260E1,-2.073979139E0,-2.616431999E1,6.326622963E0
