Time (s),Acceleration x (m/s^2),Acceleration y (m/s^2),Acceleration z (m/s^2)
12.8601226,-3.328416348,-26.45145798,-3.582653761
12.8701226,-0.2955136001,-14.99402523,-2.464009047
12.8801226,1.144367456,-12.67956734,-1.280160069
12.8901226,2.493919373,-11.13500023,-0.1399801224
12.9001226,4.112065792,-10.37946606,1.010967612
12.9101226,5.81096983,-9.916455269,2.131406784
12.9201226,7.505686283,-10.05703354,3.396013498
12.9301226,7.554141045,-10.74317551,3.669991732
12.9401226,7.144370079,-12.12443256,4.047459602
12.9501226,6.64427042,-13.96690559,4.785645485
12.9601226,5.33240509,-16.52483368,5.702694416
12.9701226,3.787240028,-18.47438622,4.980660439
12.9801226,1.709073544,-16.64327812,3.533002615
12.9901226,1.278963685,-15.47617912,1.336391449
13.0001226,1.037288666,-13.94058514,-0.08195417374
13.0101226,0.4366901219,-12.83689499,-1.432104349
13.0201226,-0.3505485058,-12.03410339,-2.871387243
13.0301226,-2.194218397,-9.27278614,-3.818944931
13.0401226,-3.203989506,-8.965906143,-4.069592953
13.0501226,-5.048855782,-9.000003815,-6.504888535
13.0601226,-6.641279221,-8.114660263,-14.94736481
13.0701226,-5.402395248,-5.862415314,-19.80778503
13.0801226,0.1112662554,-3.513859987,-7.512865067
13.0901226,1.78145647,-2.555534601,-0.6771687865
13.1001226,2.46221447,-1.867598057,3.357130051
13.1101226,2.124228239,-1.554736495,4.521238327
13.1201226,2.648854733,-0.3104687333,3.899104595
13.1301226,4.42672205,1.259821177,0.9619147182
13.1401226,5.775077343,0.8679963946,-1.928016901
13.1501226,6.9649086,1.205384374,-5.196612358
13.1601226,7.521239758,1.59003067,-6.887141705
13.1701226,7.469794273,2.140978098,-6.227919102
13.1801226,2.398804665,-1.270588875,-5.488536835
13.1901226,1.292124271,-2.852842808,-4.473381996
13.2001226,1.243071318,-4.705485821,-2.904886723
13.2101226,2.413759947,-6.949953556,-1.262812138
13.2201226,3.296711445,-9.39840889,0.08015955985
13.2301226,7.086942673,-16.14198112,2.930011272
13.2401226,10.25204849,-21.71127701,3.840480328
13.2501226,6.476174355,-24.05564499,6.995417118
13.2601226,-1.377069473,-25.75454903,8.242077827
13.2701226,-8.724829674,-29.95215797,8.154141426
13.2801226,-15.44088459,-36.57189941,-0.9355936646
13.2901226,-11.2887392,-30.96791077,-4.082753658
13.3001226,-7.301698208,-24.00838661,-8.29890728
13.3101226,-3.805784464,-20.70330048,-9.796813965
13.3201226,-2.103291035,-20.99701881,-6.986443996
13.3301226,-0.4295116663,-21.03889275,-3.991826296
13.3401226,2.80259347,-17.35454369,2.651845694
13.3501226,7.940581799,-15.01017666,1.939382792
13.3601226,10.30110168,-14.84746456,0.7190431952
13.3701226,7.778468132,-14.9210434,-0.8285148144
13.3801226,5.648257732,-13.68275833,-1.68574357
13.3901226,3.666402578,-11.15294647,-2.405385017
13.4001226,3.371487141,-9.829715729,-1.329811215
13.4101226,1.571486235,-7.922635555,-1.91365993
13.4201226,0.1214357466,-6.113063812,-2.142772675
13.4301226,-0.8261220455,-4.414757729,-2.21216464
13.4401226,-1.331605792,-1.640279889,-0.5491527915
13.4501226,-2.378465652,-1.875972986,-0.4444667995
13.4601226,-3.191427231,-1.97826612,-0.3332005441
13.4701226,-3.425923824,-1.594816327,-0.4755735099
13.4801226,-2.647658348,-0.9008977413,-1.090528965
13.4901226,0.005383851007,1.338784218,-0.7262216806
13.5001226,1.459023595,2.811566591,-0.3182454109
13.5101226,2.760120869,4.331008911,0.2805584669
13.5201226,3.06999135,5.466403484,0.06400800496
13.5301226,3.918845177,6.617949009,-0.9744769931
13.5401226,6.5288167,2.723630428,-2.406581402
13.5501226,6.263811588,0.2632105052,1.412363529
13.5601226,4.027718544,-1.163509965,1.931007862
13.5701226,2.577069998,-1.841875196,0.8057830334
13.5801226,1.901695848,-1.688734531,-0.0005982056609
13.5901226,1.244866014,-1.262812138,-0.8482556343
13.6001226,0.494716078,-2.490330219,-3.607180119
13.6101226,-0.4139583111,-5.603990555,-4.798805714
13.6201226,-2.39222455,-11.35813046,-2.539981127
13.6301226,-3.565903902,-18.56172371,2.705684185
13.6401226,-3.610769272,-26.06381989,2.36111784
13.6501226,-8.924032211,-40.82095718,0.5706881881
13.6601226,-9.168100357,-39.87818527,0.5425725579
13.6701226,-5.230710506,-28.7880497,-0.6550351977
13.6801226,-2.870190859,-20.22832489,0.7441678643
13.6901226,-1.054636598,-15.4103756,1.169492126
13.7001226,2.801995277,-10.77787113,1.012762189
13.7101226,4.376472473,-10.41476059,2.079362869
13.7201226,5.988636971,-10.42074299,2.459223509
13.7301226,7.265805721,-10.42134094,2.71286273
13.7401226,7.205387115,-10.4476614,3.780659676
13.7501226,4.566103935,-10.68455124,3.850051641
13.7601226,2.797807932,-11.76969624,4.219742775
13.7701226,1.497308731,-13.48176098,3.80159688
13.7801226,0.9284151793,-15.13879108,3.118446112
13.7901226,1.467996716,-16.6026001,2.39760828
13.8001226,2.270190477,-15.97747517,2.026720762
13.8101226,2.821736097,-14.94796276,0.4887340367
13.8201226,3.367897987,-12.94098282,-1.253839016
13.8301226,3.747758389,-11.27737331,-2.414956331
13.8401226,3.464807272,-10.34776115,-2.650051117
13.8501226,2.477767944,-9.944570541,-3.675973892
13.8601226,-0.6634100676,-8.673383713,-6.083751678
13.8701226,-2.874976397,-8.428119659,-10.32802105
13.8801226,-3.899104595,-7.659425259,-16.21735573
13.8901226,-2.587239504,-6.448657036,-17.59322929
13.9001226,0.4815555513,-5.396413326,-12.48933792
13.9101226,3.363710403,-3.226123095,-1.15393877
13.9201226,4.118047714,-1.33399868,1.710269928
13.9301226,3.79621315,-0.03290131316,4.030111313
13.9401226,3.447459221,0.1818545163,4.044468403
13.9501226,3.884747505,0.4013960063,2.697309256
13.9601226,5.063212872,0.970289588,-1.523031592
13.9701226,5.785246849,1.121635556,-4.22931385
13.9801226,6.361319065,1.800599098,-5.51605463
13.9901226,6.480959892,1.591227055,-5.722435474
14.0001226,4.441078663,-0.7357929349,-5.084748268
14.0101226,1.94715941,-4.531407833,-2.297708035
14.0201226,3.126222849,-6.396613121,-0.8733802438
14.0301226,4.911866665,-7.576274872,-0.2703889608
14.0401226,5.925825119,-10.69771194,-0.6747759581
14.0501226,9.875777245,-18.91107559,-3.043670416
14.0601226,-0.4546363056,-24.42354012,3.001197815
14.0701226,-5.170291424,-26.14457893,7.411170006
14.0801226,-9.975079536,-29.9306221,6.789036274
14.0901226,-15.03290844,-34.9124794,3.151347399
14.1001226,-15.70110416,-35.83192062,0.8350951076
14.1101226,-6.546164513,-23.59741783,-8.063812256
14.1101226,-6.546164513,-23.59741783,-8.063812256
14.1301226,0.7417750359,-21.67418671,-7.013363361
14.1401226,1.504487276,-21.36491585,-2.875574589
14.1501226,-0.7130611539,-19.97109604,1.165902853
14.1601226,4.32263422,-15.65683651,-0.02751746029
14.1701226,12.47677517,-14.95573997,0.7316055298
14.1801226,10.41117096,-14.9461689,-1.881356835
14.1901226,6.714260101,-13.72403431,-4.866403103
14.2001226,5.68175745,-12.2919302,-4.38724041
14.2101226,3.714857101,-11.18943691,-1.974078655
14.2201226,0.06580262631,-7.290332317,-1.441675663
14.2301226,-0.7238288522,-5.622535229,-1.194616675
14.2401226,-0.8195417523,-3.888336897,-0.7148557901
14.2501226,-1.292124271,-2.78285265,0.0185443759
14.2601226,-2.103889227,-2.060220242,0.7190431952
14.2701226,-3.543172121,-1.335793257,1.01036942
14.2801226,-4.150351048,-1.268794179,0.8883354068
14.2901226,-4.122833252,-0.8871390224,0.3451646566
14.3001226,-3.311068296,-0.05084748194,-0.08673982322
14.3101226,-2.183450699,1.189831018,-0.1561316848
14.3201226,0.01555334684,4.198805332,0.3457628787
14.3301226,0.9439685345,5.037489891,1.024726272
14.3401226,1.230509043,4.971687317,0.8769695163
14.3501226,2.056032896,4.597210407,-0.3194418252
14.3601226,5.227719307,3.896113396,-2.53818655
14.3701226,5.790630817,-0.3678964674,1.286740422
14.3801226,4.518247128,-1.733001828,0.4929214716
14.3901226,2.685943365,-2.155933142,-0.2063809484
14.4001226,1.690529227,-1.633101463,-0.484546572
14.4101226,1.486541033,-1.383051515,-2.274976015
14.4201226,1.377069473,-5.194219589,-5.828317642
14.4301226,0.1884347796,-9.958928108,-3.196212769
14.4401226,-0.9475577474,-15.16451359,2.483749866
14.4501226,-2.051845312,-20.66321945,3.728017569
14.4601226,-3.896711588,-32.13321686,4.00199604
14.4701226,-6.909275532,-42.11487579,4.075575352
14.4801226,-4.159922123,-30.22374344,-1.335195065
14.4901226,-2.393420935,-21.14836502,-0.5096712112
14.5001226,-0.7363911867,-16.12822342,-0.2943171859
14.5101226,1.155733347,-12.66760349,-0.1501496136
14.5201226,3.173480988,-10.70070267,0.1292124242
14.5301226,5.585446358,-11.36590767,1.28315115
14.5401226,6.412764549,-11.56750298,1.481755376
14.5501226,6.447460651,-11.09731293,2.030309916
14.5601226,5.754140377,-11.40060329,2.188834429
14.5701226,4.258625984,-13.31605816,2.223530531
14.5801226,2.413161755,-14.31326675,2.228914261
14.5901226,1.936391711,-14.89711571,2.88454771
14.6001226,1.615753531,-15.354743,2.607578516
14.6101226,2.137388945,-14.66680622,2.814557552
14.6201226,2.640479803,-14.02014637,3.591626883
14.6301226,3.932604074,-11.98026466,2.024926186
14.6401226,3.395415306,-10.70907784,1.561316729
14.6501226,2.746960402,-10.07258701,-0.1034895778
14.6601226,1.508674622,-9.176474571,-2.688336134
14.6701226,0.03708875179,-8.795417786,-4.812564373
14.6801226,-3.237488985,-8.101499557,-6.779464722
14.6901226,-4.700700283,-7.332805157,-14.99223042
14.7001226,-2.637488842,-5.303092957,-21.63709831
14.7101226,1.240678549,-3.553939819,-15.467206
14.7201226,2.944966555,-2.663809776,-5.341976643
14.7301226,2.496910334,-2.088335991,1.210768223
14.7401226,4.70488739,0.0765703246,1.232901812
14.7501226,5.190032482,0.9750752449,-0.04307080805
14.7601226,5.855835438,1.666600943,-1.87956214
14.7701226,6.44985342,2.488535643,-3.820739508
14.7801226,6.433701992,2.337189436,-4.932804108
14.7901226,4.997410297,0.3870390654,-3.997808456
14.8001226,4.034298897,-0.9140582681,-2.697907448
14.8101226,3.166302681,-2.299502611,-1.6181463
14.8201226,2.4173491,-3.831507206,-0.9314061999
14.8301226,1.816750646,-5.769693375,-0.27577281
14.8401226,1.56191504,-9.406784058,0.4516452849
14.8501226,3.211168051,-11.78405285,-0.313459754
14.8601226,5.896512985,-18.87757683,-0.6023930907
14.8701226,3.645465374,-22.36870384,4.75872612
14.8801226,0.008973085321,-25.01995087,8.075178146
14.8901226,-10.31785107,-33.99184036,6.446264267
14.9001226,-14.07817173,-33.89313507,2.48195529
14.9101226,-12.35653591,-27.79203606,-3.937389612
14.9201226,-8.642875671,-22.52483559,-9.238089561
14.9301226,-6.056832314,-23.54597282,-10.08215809
14.9401226,-2.967100143,-23.72124672,-3.903890133
14.9501226,2.490928411,-21.37328911,0.8679963946
14.9601226,10.69352436,-18.5850544,3.004786968
14.9701226,12.50189972,-18.06461525,3.431905985
14.9801226,7.06301403,-18.72264099,-0.7160521746
14.9901226,4.19581461,-13.45424366,-4.007379532
15.0001226,4.080958843,-11.70987606,-3.613760471
15.0101226,3.652045488,-10.56132126,-2.142772675
15.0201226,2.328814745,-9.731011391,-1.12283206
15.0301226,0.7154539824,-7.532007694,-1.741974831
15.0401226,-0.2955136001,-5.322834015,-2.349751949
15.0501226,-2.316850424,-2.868396044,-0.9918249846
15.0601226,-3.080160856,-1.980658889,0.1220339537
15.0701226,-3.413959742,-1.555334687,0.879960537
15.0801226,-3.279961586,-1.413560033,1.192822099
15.0901226,-2.902493954,-1.663609982,0.670588553
15.1001226,-0.1555334777,-0.2871387303,-0.2201396823
15.1101226,1.751546144,1.185643673,-0.457029134
15.1201226,3.812364578,3.006581545,0.1848455518
15.1301226,5.247459888,4.935196877,1.107876897
15.1401226,5.685945034,5.0763731,0.0951147005
15.1501226,8.795417786,0.5814558864,-3.14895463
15.1601226,8.871988297,-1.840080619,-0.8895317912
15.1701226,6.420541286,-3.114258766,-0.2937189937
15.1801226,3.909872293,-2.303689957,-0.09750752151
15.1901226,2.060818434,-1.282552958,0.8356932998
15.2001226,-0.2584248483,-1.050449133,0.9146564603
15.2101226,-0.2584248483,-1.050449133,0.9146564603
15.2201226,-1.149153113,-1.380658627,0.08075776696
15.2301226,-2.038684845,-6.059225082,-4.195216179
15.2401226,-3.829712629,-16.11805344,1.484148264
15.2501226,-3.90568471,-23.24986076,2.388036966
15.2601226,-4.637888432,-32.04587555,0.337986201
15.2701226,-6.005984783,-39.37868118,-1.736590981
15.2801226,-5.151148796,-36.94817352,-2.55254364
15.2901226,1.188634634,-19.32323837,-0.7668996453
15.3001226,3.221935749,-15.00120354,0.366101861
15.3101226,4.62891531,-12.46062374,0.890130043
15.3201226,5.848058701,-10.83410263,1.082154036
15.3301226,7.007380962,-10.07916737,1.468594909
15.3401226,7.504489899,-10.23410225,2.26241374
15.3501226,6.509075642,-10.72343445,3.293122053
15.3601226,4.948955536,-10.91725349,3.223132133
15.3701226,3.139383316,-11.24566841,2.657827854
15.3801226,1.65762794,-11.99282742,2.385644197
15.3901226,0.1890329868,-13.5714922,2.376072884
15.4001226,-0.4109672904,-15.74417496,1.439282775
15.4101226,-0.02333002165,-15.42533112,0.8446664214
15.4201226,0.8027920127,-14.55972767,0.628115952
15.4301226,1.677368641,-13.81974697,0.9002995491
15.4401226,2.225325108,-13.4721899,0.04307080805
15.4501226,3.529413462,-11.33300591,-2.87318182
15.4601226,3.547359467,-9.814760208,-3.994219303
15.4701226,2.422134638,-8.653044701,-6.57966423
15.4801226,-0.07118647546,-7.51346302,-12.90389442
15.4901226,-1.595414519,-6.263213158,-16.13300896
15.5001226,-1.595414519,-6.263213158,-16.13300896
15.5101226,0.4061816335,-4.691128731,-5.011766911
15.5201226,0.9888339639,-4.031308174,-1.763510346
15.5301226,0.9074779749,-3.521636724,0.0197407864
15.5401226,1.540379524,-2.449652195,1.034895778
15.5501226,1.540379524,-2.449652195,1.034895778
15.5601226,4.299902439,0.4444667995,-0.9649057388
15.5701226,5.429912567,1.282552958,-1.439880967
15.5801226,6.078966141,1.816750646,-1.488335729
15.5901226,6.881757736,1.538584948,-1.089332461
15.6001226,7.841279984,0.4749752879,0.2733799815
15.6101226,6.737590313,-0.9320043921,0.5700899959
15.6201226,5.892325878,-2.151745796,0.7381857634
15.6301226,4.798805714,-3.82731986,0.9290133715
15.6401226,4.337589264,-6.089733601,0.926620543
15.6501226,4.566103935,-9.815358162,0.4965106845
15.6601226,4.566103935,-9.815358162,0.4965106845
15.6701226,5.468197823,-22.35614204,5.135595798
15.6801226,1.715055585,-25.49732018,11.94317627
15.6901226,-4.664209366,-30.64129066,14.55075455
15.7001226,-10.87358475,-34.69234085,8.118846893
15.7101226,-8.914461136,-29.07459068,-7.118647575
15.7201226,-4.951946259,-25.58585358,-7.892725468
15.7301226,-2.042872429,-23.77508545,-6.135197163
15.7401226,0.4289134443,-22.3758831,-3.486342669
15.7501226,0.3535395563,-22.00738716,-2.430509567
15.7601226,0.3535395563,-22.00738716,-2.430509567
15.7701226,12.24287701,-13.93819237,5.50109911
15.7801226,11.09731293,-15.15554047,3.164507866
15.7901226,6.130411625,-15.52044582,-1.411765337
15.8001226,3.626920938,-13.32622719,-2.747558594
15.8101226,1.308275819,-11.14277649,-1.118644595
15.8201226,1.067797065,-10.22991467,-0.7088736892
15.8301226,1.232303619,-9.429515839,-1.067198873
15.8401226,1.244267821,-8.499904633,-0.7070791125
15.8501226,0.8027920127,-7.165905476,-0.4791627228
15.8601226,-0.7286145091,-4.354339123,-0.02033899166
15.8701226,-1.344766378,-3.512663603,0.4929214716
15.8801226,-1.829911113,-3.393022537,0.6221339107
15.8901226,-1.783849239,-3.323630571,0.3649054468
15.9001226,-1.293320656,-2.563909531,0.5940182209
15.9101226,-0.01316052489,-0.5718846321,0.5688936114
15.9201226,1.506281853,0.7256234884,0.2877369225
15.9301226,3.245863914,1.848455548,0.670588553
15.9401226,4.202992916,2.264208317,0.7447660565
15.9501226,4.687539577,2.139781713,-1.066002488
15.9601226,8.343772888,-2.017149448,-2.625524759
15.9701226,7.387839794,-3.284747362,0.7226324677
15.9801226,5.310869694,-2.833101988,1.301097274
15.9901226,3.755535126,-1.920838356,1.75334084
16.0001226,2.768495798,-1.200598717,2.525026083
16.0101226,1.258026481,-1.029511929,1.270588875
16.0201226,-0.9661021233,-2.208575249,-2.686541557
16.0301226,-1.372283816,-3.574877024,-2.830111027
16.0401226,-1.281954765,-5.952744484,-2.299502611
16.0501226,-2.305484533,-11.68534946,-1.26341033
16.0601226,-2.270190477,-17.23490334,1.510469317
16.0701226,-3.454039574,-29.97967529,3.125026464
16.0801226,-4.012165546,-35.59204102,1.759322882
16.0901226,-1.667797327,-33.13939667,2.152343988
16.1001226,2.108076811,-24.08794785,3.273979664
16.1101226,4.234697819,-16.77667809,4.670191765
16.1201226,4.234697819,-16.77667809,4.670191765
16.1301226,2.74396944,-9.576076508,1.829911113
16.1401226,0.4977070987,-11.577672,2.079961061
16.1501226,-1.342971683,-13.84606838,3.096910715
16.1601226,-2.307279348,-15.17587948,3.393022537
16.1701226,-3.318246841,-18.39961052,3.443870068
16.1801226,-3.318246841,-18.39961052,3.443870068
16.1901226,-3.739383698,-18.12623024,1.131805062
16.2001226,-3.789632797,-17.75055695,0.06340979785
16.2101226,-3.375674486,-16.88016701,-0.4743770957
16.2201226,-3.375674486,-16.88016701,-0.4743770957
16.2301226,0.1740778536,-12.31585789,-0.7890332937
16.2401226,2.360519648,-10.99382401,-1.714457393
16.2501226,4.197010994,-9.550951958,-4.375276089
16.2601226,5.383851051,-8.58784008,-7.194619656
16.2701226,5.708676815,-7.93878746,-8.092526436
16.2801226,5.471786976,-6.395416737,-4.636692047
16.2901226,4.758127689,-5.535196781,-2.291725874
16.3001226,3.336193085,-4.923232555,-0.07537391037
16.3101226,2.14995122,-4.617549419,-1.617548108
16.3201226,2.268395901,-4.010969162,-5.173880577
16.3301226,2.865405083,-1.892722726,-5.812166214
16.3401226,3.588635683,-1.118046403,-5.301896572
16.3501226,3.077768087,-0.8853443861,-5.028516769
16.3601226,2.593819857,-0.3571287692,-4.108476639
16.3701226,2.933002472,0.111864455,-2.894717216
16.3801226,2.933002472,0.111864455,-2.894717216
16.3901226,4.216751575,0.813559711,-0.8865407705
16.4001226,4.547559261,0.5174478889,-0.1740778536
16.4101226,4.874777794,-0.290129751,0.1728814393
16.4201226,5.080560684,-1.843669891,0.3403790295
16.4301226,5.080560684,-1.843669891,0.3403790295
16.4401226,4.290330887,-8.277371407,3.491726398
16.4501226,4.301098824,-9.466006279,4.411766529
16.4601226,6.105885029,-13.44885921,4.8376894
16.4701226,4.316651821,-19.92682838,6.404987812
16.4801226,-4.065405846,-27.51147842,12.16211891
16.4901226,-7.858029366,-32.33062363,7.60319376
16.5001226,-8.808578491,-33.83869934,-3.586841106
16.5101226,-8.289336205,-30.68136978,-9.79083252
16.5201226,-7.503891945,-27.5844593,-11.06441212
16.5301226,-4.225126743,-23.01536369,-4.734199524
16.5401226,-1.363310695,-21.41875458,-2.404188633
16.5501226,1.398006678,-19.87598038,0.6520441771
16.5601226,5.941977024,-18.13340759,4.697110653
16.5701226,12.60658646,-16.6905365,2.947957516
16.5801226,13.11625767,-16.04447365,-0.006580262445
16.5901226,5.801996708,-13.48594856,-1.97826612
16.6001226,4.781457901,-12.18724346,-1.877169371
16.6101226,5.0793643,-11.51545906,-1.698305845
16.6201226,5.052444935,-11.03988552,-1.231705427
16.6301226,3.811766386,-10.01695347,-0.8769695163
16.6401226,0.694516778,-6.562914371,-0.5437689424
16.6501226,-1.089930773,-5.114658356,-1.012163997
16.6601226,-2.599801779,-3.716651678,-1.228714466
16.6701226,-3.410370588,-2.940180779,-1.171286702
16.6801226,-3.976871252,-2.489732027,-0.7310073376
16.6901226,-2.837289333,-1.585843205,-0.8398807645
16.7001226,-2.837289333,-1.585843205,-0.8398807645
16.7101226,-1.670190215,0.3499503136,0.342173636
16.7201226,-1.670190215,0.3499503136,0.342173636
16.7301226,-1.670190215,0.3499503136,0.342173636
16.7401226,-1.670190215,0.3499503136,0.342173636
16.7501226,-0.4971089065,1.439880967,-0.03888336942
16.7601226,6.958926678,5.922235966,-1.819143414
16.7701226,9.351150513,3.239881754,1.05523479
16.7801226,7.286144733,-0.4719842672,3.566502094
16.7901226,5.606383324,-1.93340075,2.094916344
16.8001226,3.236292601,-2.669791937,0.1561316848
16.8101226,0.109471634,-1.436890006,-5.220541
16.8201226,-1.192822099,-3.162115097,-6.548557281
16.8301226,-3.094517946,-8.46102047,-4.396213531
16.8401226,-3.448057413,-15.94995785,2.210369825
16.8501226,-2.120040894,-23.54896355,5.265406132
16.8601226,-8.803792953,-42.61916351,0.3541377485
16.8701226,-11.25045395,-49.92624283,2.175075769
16.8801226,-5.935396671,-35.84089279,-0.9661021233
16.8901226,0.0185443759,-20.71526337,0.8913264275
16.9001226,1.723430514,-12.56889915,1.80658114
16.9101226,3.632304668,-7.517650604,0.9218349457
16.9201226,3.632304668,-7.517650604,0.9218349457
16.9301226,4.283750534,-6.872784615,1.943570137
16.9401226,4.028316975,-8.775676727,3.089133978
16.9501226,3.16032052,-11.36291695,3.519842148
16.9601226,0.8632107973,-14.68834209,1.574477315
16.9701226,-0.6915257573,-14.77687645,0.993021369
16.9801226,-1.505683661,-14.4825592,0.4319044948
16.9901226,-1.55892396,-14.34616852,0.08733802289
17.0001226,-1.138385415,-14.02493191,0.09631111473
17.0101226,0.5102694035,-12.23868942,0.1136590764
17.0201226,1.479960799,-11.40239811,-0.3655036688
17.0301226,2.382055044,-10.63609695,-1.022931695
17.0401226,3.050250769,-9.675976753,-1.435693622
17.0501226,3.437289715,-8.852247238,-1.486541033
17.0601226,4.112065792,-7.390830994,-0.9332008362
17.0701226,3.690330744,-6.787241459,-1.060618639
17.0801226,2.402992249,-6.180062771,-1.841875196
17.0901226,1.037886858,-5.906084538,-2.980260611
17.1001226,-0.08913264424,-5.678766251,-5.070989609
17.1101226,-0.793818891,-5.369493961,-8.629714966
17.1201226,0.865005374,-4.320839405,-11.56630611
17.1301226,1.925025821,-3.577269793,-9.369096756
17.1401226,2.312064886,-3.256033421,-6.430112839
17.1501226,2.310270309,-3.083152056,-1.942373753
17.1601226,1.866401672,-2.866601467,1.572084427
17.1701226,4.560121536,-2.015953064,-0.1555334777
17.1801226,6.044270039,-1.956132531,-1.88255322
17.1901226,6.345167637,-1.372882009,-1.75334084
17.2001226,5.65304327,-0.9188438654,-0.9056833982
17.2101226,4.91366148,-1.20179522,-0.1537388563
17.2201226,4.467998028,-2.37786746,1.834098577
17.2301226,4.331607342,-3.538386583,2.894119024
17.2401226,3.946362734,-5.624927998,3.616751432
17.2501226,4.612165451,-7.500900745,3.712464333
17.2601226,6.061617851,-10.65942669,3.152543783
17.2701226,8.465806961,-23.97727966,4.71924448
17.2801226,5.492724419,-25.32084846,13.21795273
17.2901226,-1.60977149,-27.15853691,17.59382629
17.3001226,-9.106484413,-29.82593536,14.58425426
17.3101226,-13.0761776,-29.7798748,8.339585304
17.3201226,-4.817350388,-23.43111801,-9.243474007
17.3301226,-4.782055855,-23.4795723,-8.386843681
17.3401226,-4.286741734,-23.14577293,-6.591628075
17.3501226,-3.476173162,-22.55295181,-4.841876507
17.3601226,-2.961716175,-21.31586266,-2.868994236
17.3701226,0.1387837082,-19.60918236,1.588235974
17.3801226,7.301100254,-16.43330765,2.076371908
17.3901226,7.328617573,-14.89651775,-1.059422255
17.4001226,6.008377552,-14.22353554,-3.952943087
17.4101226,5.276772022,-12.81894875,-3.649652719
17.4201226,4.640879631,-12.22852039,-3.246462107
17.4301226,3.699303865,-11.0368948,-2.624328136
17.4401226,3.012563705,-10.02532864,-1.466800332
17.4501226,2.410768747,-8.395217896,-0.5150550604
17.4601226,1.760519266,-7.239484787,-0.1657029688
17.4701226,1.130608678,-6.302694798,0.6951149702
17.4801226,-0.2709871531,-4.081557274,1.206580877
17.4901226,-0.8835497499,-3.24466753,1.171286702
17.5001226,-1.386042476,-2.429911375,1.006780148
17.5101226,-1.521237016,-1.575075507,0.446859628
17.5201226,-1.564906001,-0.6939185858,0.366101861
17.5301226,-1.033699393,0.8428717852,1.138983607
17.5401226,-0.2829512656,1.570888042,1.175474167
17.5501226,0.6586244106,2.393420935,1.32801652
17.5601226,1.357328653,3.429512978,1.801795483
17.5701226,1.639681697,4.146163464,2.06560421
17.5801226,0.27577281,3.131008387,1.259222865
17.5901226,0.03110669367,2.51844573,0.4498506486
17.6001226,-0.142971158,2.017149448,-0.5114658475
17.6101226,-0.5030909777,1.449452281,-1.65164578
17.6201226,-0.9828519225,0.5760720372,-2.870190859
17.6301226,-1.435693622,-2.315055847,-5.806782246
17.6401226,-1.837687731,-4.846064091,-6.767500877
17.6501226,-3.166900873,-9.826724052,-7.939385414
17.6601226,-3.573680639,-15.856637,-4.201198578
17.6701226,-1.909472466,-24.07897377,2.069193363
17.6801226,-0.6239284873,-32.67698288,4.930410862
17.6901226,-4.520640373,-41.58187485,5.663811207
17.7001226,-3.485744476,-26.31805801,2.536990166
17.7101226,-2.304886341,-15.81416512,-0.1639083475
17.7201226,-1.543968797,-11.19781208,-1.309472203
17.7301226,-0.7124629617,-9.532406807,-1.142572761
17.7401226,2.111665964,-10.11266708,0.109471634
17.7501226,3.686143398,-10.71087265,1.064806104
17.7601226,4.572684288,-12.27936745,1.780858278
17.7701226,5.775077343,-13.71924877,2.605185747
17.7801226,6.948158741,-15.55932903,3.100499868
17.7901226,7.250252724,-16.89392662,3.055036306
17.8001226,5.258825779,-16.41057587,1.987239242
17.8101226,3.229114056,-15.80698681,0.8626125455
17.8201226,1.68275249,-14.79123306,-0.24765715
17.8301226,0.17587246,-13.61516094,-0.2267199457
17.8401226,-1.900499344,-12.11785221,-0.4456632137
17.8501226,-2.288734913,-11.40120125,-1.00737834
17.8601226,-2.444268227,-10.52004433,-1.926820397
17.8701226,-2.374278307,-9.361320496,-2.723630428
17.8801226,-2.352144718,-8.179265976,-3.448655605
17.8901226,-1.686341763,-5.37487793,-4.912465096
17.9001226,-0.9708877802,-4.625924587,-5.910272121
17.9101226,0.3332005441,-4.396811485,-6.401997089
17.9201226,2.304288149,-4.431507587,-5.906084538
17.9301226,3.807579041,-4.269991875,-4.850849628
17.9401226,4.331607342,-4.0127635,-3.022733212
17.9501226,4.241876125,-3.779463291,-2.130808592
17.9601226,3.683750391,-3.439682484,-1.364507079
17.9701226,2.54656148,-3.553341627,-0.9918249846
17.9801226,2.440679073,-3.207578659,-1.167099237
17.9901226,3.013161898,-2.720639229,-1.664208174
18.0001226,4.708476543,-1.496112347,-2.823530674
18.0101226,5.079962254,-1.093519926,-3.690928936
18.0201226,4.936393261,-1.17068851,-3.634697676
18.0301226,4.110869408,-1.574477315,-2.66799736
18.0401226,3.29551506,-1.960918188,-1.490728498
18.0501226,1.345962763,-4.507479668,1.368096352
18.0601226,0.9786644578,-6.365506649,1.565504193
18.0701226,0.6496513486,-7.788637638,1.713261008
18.0801226,0.2297109663,-9.455238342,1.840080619
18.0901226,0.2368894368,-12.81595802,2.024327993
18.1001226,1.366899967,-25.11985207,8.137392044
18.1101226,-2.377269268,-28.50449944,10.06002426
18.1201226,-6.9619174,-30.14657402,4.271188259
18.1301226,-9.256035805,-29.0901432,-0.35174492
18.1401226,-6.954739094,-24.96790695,-4.066003799
18.1501226,-3.960121393,-24.4217453,-6.086144447
18.1601226,-0.2009970993,-22.35733795,-5.033900738
18.1701226,2.818745136,-20.65364838,-3.163311481
18.1801226,3.723232031,-20.15893173,-2.562713146
18.1901226,5.91206646,-19.6899395,-3.034697294
18.2001226,5.696712494,-17.14158249,0.394815743
18.2101226,6.238088608,-15.43729496,-1.129412293
18.2201226,6.227919102,-14.29771328,-4.29691124
18.2301226,5.09013176,-13.92203999,-4.054637909
18.2401226,3.16032052,-13.47817135,-2.613560438
18.2501226,4.064209461,-10.43031406,-1.59003067
18.2601226,2.879761934,-9.533005714,-0.5976074338
18.2701226,0.9379864931,-8.032107353,-0.6047859192
18.2801226,-0.2727817893,-6.223731518,-0.6556333899
18.2901226,-1.173081279,-4.432703972,-0.8967102766
18.3001226,-1.953141451,-3.385843992,-0.7782655358
18.3101226,-3.038286448,-1.987837434,-0.2895315289
18.3201226,-3.320041418,-1.873580098,-0.2279163599
18.3301226,-2.899502754,-1.56191504,-0.3008974493
18.3401226,-1.957328916,-0.9170492887,0.05144568533
18.3501226,-0.6221339107,0.2697907388,0.9457631707
18.3601226,2.076371908,2.515454769,2.636292458
18.3701226,2.823530674,3.166302681,3.491128206
18.3801226,3.646063566,4.083351612,3.945166349
18.3901226,3.940979004,4.332803726,3.12921381
18.4001226,4.383651257,4.765306473,2.152343988
18.4101226,3.498904943,2.419143677,-1.620539188
18.4201226,1.819741607,0.6101697683,-2.562713146
18.4301226,1.092323542,-0.09092725813,-3.05324173
18.4401226,0.5856433511,-0.4737788737,-3.139383316
18.4501226,0.08853443712,-0.8961120844,-2.971287489
18.4601226,-1.488933921,-3.893122435,-3.824927092
18.4701226,-2.507678032,-8.087141991,-5.148158073
18.4801226,-4.067798615,-14.59980774,-1.747956991
18.4901226,-3.410370588,-21.10290146,3.47557497
18.5001226,-2.82233429,-29.51786041,3.759722471
18.5101226,-7.287341595,-41.38805389,1.171884894
18.5201226,-5.739185333,-32.06202698,0.08793623
18.5301226,-3.134597778,-21.30270195,-0.4701896608
18.5401226,-1.865205288,-15.44088459,-0.1740778536
18.5501226,-0.8434699774,-12.43250847,-0.4576273263
18.5601226,-0.03110669367,-10.50927734,-0.2889333367
18.5701226,2.635694027,-9.641879082,2.197209358
18.5801226,4.048655987,-10.09950638,3.55992198
18.5901226,4.96450901,-10.13121128,4.961517811
18.6001226,5.291727066,-10.96092224,6.044270039
18.6101226,4.805386066,-13.8173542,5.809175014
18.6201226,1.888535261,-18.92842293,4.639683247
18.6301226,1.178465128,-19.83650017,2.864208698
18.6401226,1.450050473,-19.03490448,2.573480844
18.6501226,1.24965167,-18.47617912,2.72961235
18.6601226,1.322034478,-17.74457359,0.4935196638
18.6701226,2.45683074,-13.74437332,-3.00538516
18.6801226,2.846860647,-12.55214977,-3.762713671
18.6901226,3.28414917,-11.30369377,-5.136792183
18.7001226,2.767897606,-9.640084267,-10.19940662
18.7101226,0.7722834945,-8.218149185,-16.57149315
18.7201226,0.4606183469,-6.637091637,-10.81675434
18.7301226,1.191027522,-5.817550182,-5.632106304
18.7401226,2.389233351,-4.736592293,-0.879960537
18.7501226,2.023131609,-4.491328239,0.4127618968
18.7601226,2.038684845,-3.63589406,-1.60678041
18.7701226,2.983849764,-1.748555183,-1.768295884
18.7801226,2.984447956,-0.9224331379,-1.499701619
18.7901226,3.427120209,0.2207378894,-2.056032896
18.8001226,3.804588079,1.088734269,-2.288734913
18.8101226,4.100699902,1.414756417,-2.400001049
18.8201226,4.332205296,1.052842021,-1.094118118
18.8301226,4.065405846,0.5718846321,-0.7393822074
18.8401226,3.912265062,-0.08255238086,-0.9786644578
18.8501226,3.783052683,-0.955334425,-1.439880967
18.8601226,3.247658491,-2.065006018,-1.668993831
18.8701226,2.568695068,-3.643072367,-1.949552298
18.8801226,2.26540494,-7.188039303,-1.427318692
18.8901226,3.223730326,-9.574281693,-0.8644071817
18.9001226,5.358726501,-14.76132298,-0.7166503668
18.9101226,5.268995285,-19.97109604,1.261017561
18.9201226,2.45683074,-21.68794632,5.946164131
18.9301226,-6.372086525,-29.01297379,11.30070305
18.9401226,-12.25843048,-35.21577072,6.766304016
18.9501226,-14.69611835,-36.64368439,-1.565504193
18.9601226,-11.71944714,-29.80858803,-6.610172749
18.9701226,-6.901498795,-25.1246376,-9.607182503
18.9801226,0.4677968323,-22.90409851,-5.575874805
18.9901226,1.442273855,-21.6849556,-3.002394199
19.0001226,6.313462734,-19.11027718,-0.06101697683
19.0101226,8.618349075,-18.30030823,3.08973217
19.0201226,9.31166935,-17.42991829,3.260818958
19.0301226,6.912864685,-16.67079544,-1.307079315
19.0401226,4.545166492,-16.31605911,-1.644467354
19.0501226,3.653241873,-13.86102295,-2.494517565
19.0601226,3.543172121,-11.23370457,-1.75034976
19.0701226,1.66600275,-8.852845192,-0.104685992
19.0801226,-0.8590233326,-5.272584915,1.000199914
19.0901226,-2.275574446,-3.835096598,0.5778666735
19.1001226,-3.281756163,-2.433500528,-0.2452643216
19.1101226,-4.290929317,-1.588235974,-0.0765703246
19.1201226,-5.098506927,-1.155135155,0.1770688742
19.1301226,-5.027918816,0.3397808075,-0.1052841991
19.1401226,-4.378267288,0.8069794178,-0.4301098585
19.1501226,-3.518645763,1.373480201,-0.5814558864
19.1601226,-2.489732027,2.380260229,0.008374879137
19.1701226,-1.360917926,3.769293785,0.7495517135
19.1801226,-0.1453639716,5.60578537,1.823929071
19.1901226,1.128814101,7.179664135,3.586841106
19.2001226,1.898704767,6.782455921,0.7381857634
19.2101226,4.083351612,4.057030678,-6.185446739
19.2201226,8.531609535,1.109671474,-3.467200041
19.2301226,7.636095047,-1.736590981,0.7585247755
19.2401226,3.259622574,-2.919841766,-0.4247260094
19.2501226,2.081157446,-2.3216362,-1.344766378
19.2601226,1.557727575,-1.805384636,-2.784647465
19.2701226,0.4115654826,-3.099303484,-4.947160721
19.2801226,-1.240080357,-7.173682213,-7.177869797
19.2901226,-3.589832067,-25.11985207,0.6765705943
19.3001226,-3.579662561,-34.01098251,1.329213023
19.3101226,-6.92542696,-42.7059021,-0.05623133108
19.3201226,-8.829515457,-42.97090912,-0.7399803996
19.3301226,-4.565505505,-30.31347275,-0.8392825127
19.3401226,-1.280160069,-15.03530121,0.8506484628
19.3501226,0.1304088384,-12.04247856,1.526022673
19.3601226,1.803590059,-10.91785145,1.802991867
19.3701226,3.439084291,-10.72104168,1.925624013
19.3801226,5.031507969,-10.09830952,2.055434704
19.3901226,6.480361938,-7.399205685,2.978466034
19.4001226,5.274977684,-9.36550808,4.967499733
19.4101226,3.573082447,-12.90867996,4.292125702
19.4201226,3.333201885,-14.47238922,3.285345554
19.4301226,2.589034081,-15.45464325,4.109074593
19.4401226,0.6598208547,-16.26760483,5.293521881
19.4501226,-0.7800601721,-19.22812462,4.067200184
19.4601226,0.2781656384,-17.43769455,2.52682066
19.4701226,1.064207911,-14.90549088,1.81794703
19.4801226,1.621137381,-13.21316624,0.6622136831
19.4901226,2.172683001,-11.37129116,-0.6311069727
19.5001226,2.511865616,-9.03828907,-3.209971666
19.5101226,1.797608018,-7.637889862,-3.769293785
19.5201226,0.4953143001,-6.629314899,-4.500301361
19.5301226,-1.898106575,-6.009573936,-5.903691769
19.5401226,-4.797609329,-6.400202274,-12.66461182
19.5501226,-2.109273195,-5.816353798,-20.58964157
19.5601226,0.7004988194,-5.416752338,-13.03430271
19.5701226,2.664407969,-4.098905087,-4.743771076
19.5801226,4.441078663,-2.585444927,2.857628345
19.5901226,4.197010994,-2.018345833,5.517848969
19.6001226,3.437289715,-1.447059512,3.531208038
19.6101226,4.158725739,-0.4510470629,0.5186443329
19.6201226,5.349154949,0.08973085135,-2.331805706
19.6301226,6.068198204,0.5270192027,-4.036093712
19.6401226,5.797809124,0.3206382394,-5.441278458
19.6501226,3.406183004,-1.424327731,-3.814159393
19.6601226,3.202793121,-2.416750908,-2.834896564
19.6701226,3.327818155,-3.671786308,-2.598007202
19.6801226,3.482155085,-5.01475811,-2.093719721
19.6901226,3.407977581,-6.498906136,-1.261017561
19.7001226,2.583650351,-9.631111145,-0.2542374134
19.7101226,3.162713289,-12.44088268,-0.8829515576
19.7201226,4.328018188,-16.92802429,-0.2703889608
19.7301226,2.846262455,-18.50369835,2.730808735
19.7401226,0.02572284266,-20.68535423,5.286941528
19.7501226,-2.916850805,-23.60878372,6.300900459
19.7601226,-11.88395405,-32.09492874,2.961117983
19.7701226,-12.38525009,-30.37568665,-1.779661894
19.7801226,-11.41615677,-26.04168701,-4.444668293
19.7901226,-9.238089561,-22.42553329,-7.635497093
19.8001226,-5.171487808,-20.97368813,-8.803194046
19.8101226,0.06221338734,-20.62014961,-4.279563427
19.8201226,1.141974568,-19.50030899,-1.82632184
19.8301226,5.724828243,-17.8707962,-0.1028913707
19.8401226,10.77847004,-18.11247063,-0.5928218365
19.8501226,11.16072273,-18.42652893,-0.8470591903
19.8601226,8.885149002,-14.37009621,0.7262216806
19.8701226,4.588835716,-14.8396883,-3.574278831
19.8801226,1.123430252,-13.66241932,-5.510072231
19.8901226,1.926820397,-11.21695423,-4.634299278
19.9001226,1.590628862,-9.240483284,-2.362912416
19.9101226,-0.7722834945,-5.676971912,-1.616351724
19.9201226,-1.623530149,-4.000201225,-1.244866014
19.9301226,-2.020140409,-2.845066071,-0.8033902049
19.9401226,-2.560320139,-2.191825628,-0.5479564071
19.9501226,-2.818146944,-1.758724689,-0.1962114573
19.9601226,-3.491128206,-2.499303341,0.342173636
19.9701226,-3.439682484,-2.419143677,-0.2315055877
19.9801226,-2.938386202,-1.764706731,-0.733400166
19.9901226,-1.73898387,-0.352343142,-0.6478567123
20.0001226,-0.2518445849,1.296909928,-0.2051845491
20.0101226,1.613958836,3.410968781,0.9882357717
20.0201226,2.652443886,4.339384079,1.917847395
20.0301226,3.886542082,4.544568539,2.124826431
20.0401226,5.509474277,3.387040377,-0.002392822644
20.0501226,7.324429989,1.75334084,-1.729412556
20.0601226,6.48933506,-0.5324030519,-1.383649707
20.0701226,2.971287489,-1.472184181,-0.8093722463
20.0801226,1.537388563,-1.322034478,-0.5168496966
20.0901226,0.5850451589,-0.8249256015,-0.5413761139
20.1001226,-0.142971158,-1.184447169,-1.341177106
20.1101226,-0.9182456732,-3.46121788,-2.378465652
20.1201226,-3.087339401,-13.73061466,-1.374676585
20.1301226,-4.613361835,-21.80340004,4.33340168
20.1401226,-6.095715523,-30.3451786,4.814359188
20.1501226,-8.642875671,-36.64069366,4.017549038
20.1601226,-9.081958771,-39.2805748,0.6520441771
20.1701226,-4.649852753,-21.38345909,0.007178467698
20.1801226,-3.66101861,-15.58385563,1.000798106
20.1901226,-1.759322882,-13.06182098,0.5736792088
20.2001226,0.7483552694,-11.67458153,-0.494716078
20.2101226,2.823530674,-11.01416302,-0.262014091
20.2201226,3.600599766,-10.98963642,1.239482164
20.2301226,3.598206997,-12.57428265,2.067398787
20.2401226,3.714258909,-13.72642708,2.663809776
20.2501226,3.597608805,-13.91785336,4.137190342
20.2601226,2.834896564,-14.13918877,5.765506268
20.2701226,1.325623751,-15.07717514,6.361917019
20.2801226,1.497308731,-14.82712555,6.177670002
20.2901226,1.820937991,-13.98903942,5.379663467
20.3001226,2.101496458,-13.3902359,4.536791801
20.3101226,2.477169752,-13.39801216,3.513859987
20.3201226,3.18843627,-13.02054405,2.9491539
20.3301226,3.162115097,-13.12941742,1.325025558
20.3401226,3.15433836,-12.82792187,-0.2488535494
20.3501226,3.379263878,-11.5387888,-2.748754978
20.3601226,3.567100286,-9.256634712,-4.127020836
20.3701226,3.575475216,-7.64327383,-4.226921082
20.3801226,2.227119684,-6.540780544,-6.901498795
20.3901226,1.260419369,-6.202794552,-15.87697601
20.4001226,2.176870346,-5.459224701,-22.04567337
20.4101226,3.375674486,-4.962115765,-17.25883102
20.4201226,3.574278831,-4.863411903,-7.144370079
20.4301226,3.291327477,-4.951348305,3.771686792
20.4401226,3.324826956,-4.947160721,3.795614958
20.4501226,3.172284603,-4.663611412,1.383649707
20.4601226,3.239283562,-3.713660717,-1.320239902
20.4701226,3.497708559,-2.572882652,-3.754338741
20.4801226,3.949353695,-0.394815743,-4.615156651
20.4901226,3.699902058,0.2524427772,-4.803591251
20.5001226,3.50907445,0.3756731451,-4.601995945
20.5101226,3.472583771,-0.4869394004,-3.659822226
20.5201226,2.801397085,-2.24267292,-2.370688915
20.5301226,2.525026083,-5.42572546,-0.02691925503
20.5401226,2.42572403,-7.088139057,0.2063809484
20.5501226,2.023729801,-9.164510727,-0.70348984
20.5601226,3.242274761,-14.47896957,-2.509472847
20.5701226,4.244269371,-20.51366806,-2.447857618
20.5801226,-2.073979139,-26.16431999,6.326622963
20.5901226,-6.156134605,-29.41018295,6.026922226
20.6001226,-11.67936707,-32.40480042,2.050050735
20.6101226,-14.30549049,-31.80300522,-1.159322619
20.6201226,-13.3902359,-27.34816742,-1.678565025
20.6301226,-9.36550808,-22.2999115,-3.972085476
20.6401226,-2.118246317,-20.88156509,-7.158128738
20.6501226,0.4875376225,-21.07179451,-4.692923546
20.6601226,1.808973908,-20.91326904,-0.8703892231
20.6701226,5.788238049,-18.73101616,0.4899304509
20.6801226,7.033103943,-17.57946968,1.656431437
20.6901226,9.386445045,-16.25444412,-0.1507478207
20.7001226,7.01575613,-15.8943243,-2.235494614
20.7101226,5.125426292,-13.33699512,-2.753540754
20.7201226,2.574677229,-10.89571762,-3.102294445
20.7301226,0.70348984,-8.846264839,-3.517449379
20.7401226,-0.285344094,-6.251847267,-2.274377823
20.7501226,-0.8195417523,-5.095515728,-1.292124271
20.7601226,-1.006780148,-3.573082447,-1.321436286
20.7701226,-1.513460279,-2.575873613,-0.9720842242
20.7801226,-2.254637241,-2.05722928,-0.5742774606
20.7901226,-2.980260611,-1.253839016,0.2279163599
20.8001226,-2.723032236,-0.9595218897,-0.1764706671
20.8101226,-1.74735868,-0.4001995921,0.0747757107
20.8201226,-0.1495514214,0.5395814776,0.8051848412
20.8301226,1.774278045,2.121237278,2.149353027
20.8401226,3.204587698,4.556532383,3.238087177
20.8501226,3.892524242,5.099703312,2.88993144
20.8601226,4.415356159,5.11585474,1.177866936
20.8701226,4.847858906,4.881956577,-0.3978067636
20.8801226,5.254040241,3.560520172,-0.9840483069
20.8901226,1.663609982,-0.3122633696,1.007976532
20.9001226,0.5162515044,-0.8356932998,1.158126116
20.9101226,-0.1345962733,-1.034895778,0.733400166
20.9201226,-0.4372883439,-0.5455635786,-0.2512463629
20.9301226,-0.3158525825,-3.297907829,-5.430510998
20.9401226,-1.089930773,-8.219346046,-7.037291527
20.9501226,-3.400799274,-17.01775551,-0.2350948304
20.9601226,-4.776073933,-26.2905407,1.064806104
20.9701226,-5.860022545,-36.83391571,0.006580262445
20.9801226,-8.007580757,-47.75296402,0.685543716
20.9901226,-8.007580757,-47.75296402,0.685543716
21.0001226,-4.262813568,-20.52204323,-0.2979064286
21.0101226,-3.561118364,-14.87378597,0.5647061467
21.0201226,-2.207977057,-12.18006516,0.4755735099
21.0301226,-0.7974081635,-10.89631653,0.2189432681
21.0401226,-0.7974081635,-10.89631653,0.2189432681
21.0501226,3.364906788,-9.310472488,1.866999865
21.0601226,4.196412563,-8.530412674,3.071786165
21.0701226,3.561716557,-9.022137642,4.251447678
21.0801226,3.002394199,-10.72283649,4.144368649
21.0901226,2.665006161,-11.87677479,4.835894585
21.1001226,2.609373093,-13.39621735,5.846862316
21.1101226,3.310470104,-14.81755447,6.238687038
21.1201226,4.950749874,-15.89252949,6.340980053
21.1301226,6.432505608,-17.31266975,5.908477306
21.1401226,6.36251545,-16.50927925,3.636492252
21.1501226,6.232704639,-15.50489235,2.072782516
21.1601226,6.536593437,-14.32104397,-1.01036942
21.1701226,6.627520561,-12.47198963,-4.234697819
21.1801226,6.246463299,-11.07458115,-5.904888153
21.1901226,2.067996979,-9.08435154,-13.59601784
21.2001226,-2.401795626,-8.032107353,-26.1780777
21.2101226,-2.755335331,-7.27178812,-28.00440025
21.2201226,-0.8261220455,-6.535995007,-18.40200233
21.2301226,1.329213023,-6.304489613,-9.380462646
21.2401226,1.329213023,-6.304489613,-9.380462646
21.2501226,2.702095032,-3.678964853,7.639086246
21.2601226,1.799402595,-4.214358807,6.042475224
21.2701226,2.326421738,-3.814757586,2.386840582
21.2801226,2.656631231,-2.53818655,-0.9086744189
21.2901226,2.471187592,-0.9451649189,-2.286342144
21.3001226,2.471187592,-0.9451649189,-2.286342144
21.3101226,2.939582586,-0.05563312769,-6.19382143
21.3201226,2.753540754,-0.8380861282,-5.480162144
21.3301226,2.139781713,-2.031506538,-3.89730978
21.3401226,1.890928149,-3.547359467,-2.360519648
21.3501226,2.800200701,-6.11784935,1.336989641
21.3601226,3.235694408,-7.400402069,1.730010748
21.3701226,3.390031576,-8.721838951,1.113260746
21.3801226,4.476373196,-12.01256752,-0.2171486616
21.3901226,7.609176159,-18.51267052,-0.5054838061
21.4001226,0.7393822074,-25.39562416,6.008975983
21.4101226,-5.286343575,-27.23929405,6.340381622
21.4201226,-9.680164337,-28.08994293,3.412763357
21.4301226,-10.9184494,-28.85624504,0.97926265
21.4401226,-9.595816612,-27.68675232,-0.3385843933
21.4501226,-4.942375183,-23.09671974,-8.871988297
21.4601226,-1.369292736,-20.9449749,-9.248259544
21.4701226,-0.1980060786,-20.7571373,-6.245865345
21.4801226,0.6532405615,-20.38983917,-2.270190477
21.4901226,1.439282775,-19.12762642,0.6580262184
21.5001226,10.37348461,-14.42872047,1.497308731
21.5101226,8.045268059,-14.20080376,-1.238285661
21.5201226,5.915655613,-12.71306705,-2.764308453
21.5301226,4.759922504,-11.29292679,-3.526422262
21.5401226,3.817150354,-10.39621639,-3.616751432
21.5501226,3.817150354,-10.39621639,-3.616751432
21.5601226,3.817150354,-10.39621639,-3.616751432
21.5701226,3.817150354,-10.39621639,-3.616751432
21.5801226,-1.299900889,-3.55992198,-1.073180914
21.5901226,-1.992623091,-2.42572403,-1.127617717
21.6001226,-2.395813704,-1.633101463,-0.7070791125
21.6101226,-2.966501951,-1.652244091,-0.7878368497
21.6201226,-2.533401012,-1.752742529,-0.94277215
21.6301226,-1.654038668,-1.38185513,-0.7663014531
21.6401226,-0.6478567123,-0.7178468108,-0.04426721856
21.6501226,0.3146561682,0.02691925503,0.1974078715
21.6601226,2.49332118,1.853839397,-1.158126116
21.6701226,2.703889608,1.980658889,-2.527418852
21.6801226,4.320241451,1.665404558,-3.803391695
21.6901226,7.697112083,-0.457029134,-2.754737139
21.7001226,7.500302792,-2.560918331,0.3906283081
21.7101226,3.50907445,-2.602194548,0.8703892231
21.7201226,2.023131609,-2.53280282,0.08015955985
21.7301226,0.5359922647,-2.571686029,-1.690529227
21.7401226,-0.5012963414,-2.837289333,-2.965305567
21.7501226,-0.9032905698,-4.051646709,-3.877569199
21.7601226,-3.102294445,-11.45503998,-2.407179594
21.7701226,-3.61017108,-17.09731674,-1.905883193
21.7801226,-3.253042459,-19.99681854,-1.382453322
21.7901226,-5.495117188,-23.46940231,2.872583628
21.8001226,-8.063812256,-28.56850815,6.296712875
21.8101226,-6.106483459,-29.32464027,3.541377544
21.8201226,-1.48295188,-21.6484642,2.371287346
21.8301226,1.161715388,-15.28953838,0.5808576941
21.8401226,3.262015581,-10.98544884,-0.2608176768
21.8501226,4.956133842,-8.215158463,0.2338984162
21.8601226,6.778268337,-6.826124668,1.049252748
21.8701226,8.829515457,-7.405188084,1.357328653
21.8801226,8.09671402,-8.915657043,2.271386862
21.8901226,6.735197544,-10.1832552,2.327618122
21.9001226,4.50269413,-11.94556904,2.464009047
21.9101226,2.088335991,-14.44606876,2.386840582
21.9201226,2.088335991,-14.44606876,2.386840582
21.9301226,-2.163111687,-21.33081818,0.05264209956
21.9401226,-2.478366137,-19.55833435,-0.3224328458
21.9501226,-1.946561217,-16.85145378,-0.8733802438
21.9601226,-1.161715388,-14.97009659,-1.546361685
21.9701226,0.2081755698,-12.20818138,-3.355335474
21.9801226,0.2081755698,-12.20818138,-3.355335474
21.9901226,1.764706731,-9.569496155,-5.308476925
22.0001226,2.230110645,-8.24865818,-6.517450809
22.0101226,1.872383714,-7.218547821,-7.118049145
22.0201226,0.7214360237,-6.171089649,-6.105885029
22.0301226,0.457029134,-5.905486107,-5.012365341
22.0401226,0.4869394004,-5.547161102,-3.543770313
22.0501226,0.9236295223,-5.267200947,-2.297708035
22.0601226,1.535593987,-5.142175674,-2.705085993
22.0701226,2.892324448,-4.445864677,-4.804787636
22.0801226,3.537788391,-3.917648792,-4.902893543
22.0901226,4.157529354,-3.460021496,-4.383651257
22.1001226,4.6402812,-2.979064226,-3.626322746
22.1101226,5.242674351,-2.391027927,-2.911466837
22.1201226,6.620940208,-0.6951149702,-1.001396298
22.1301226,6.870391846,-0.111864455,-0.3337987661
22.1401226,7.378268719,-0.2925225794,0.4139583111
22.1501226,6.78484869,-1.226321578,0.9218349457
22.1601226,5.918048382,-1.99800694,1.376471281
22.1701226,5.212165833,-3.088535786,1.637288928
22.1801226,4.533800602,-5.288137913,2.344966173
22.1901226,3.437887907,-7.223931789,3.156133175
22.2001226,2.081157446,-9.896714211,4.659423828
22.2101226,0.5180460811,-12.71725368,6.068198204
22.2201226,0.01375873014,-17.33779526,7.180262566
22.2301226,-5.715256691,-27.1076889,14.99940872
22.2401226,-8.477770805,-28.69472885,11.10449123
22.2501226,-7.867002487,-27.54079056,4.279563427
22.2601226,-4.135395527,-24.20519638,-5.533402443
22.2701226,-1.210170031,-23.36950302,-7.430910587
22.2801226,-1.210170031,-23.36950302,-7.430910587
22.2901226,3.4809587,-24.19083786,-3.16869545
22.3001226,3.622733593,-22.69831467,-2.985644341
22.3101226,2.716451883,-21.69572258,-2.528615236
22.3201226,5.428716183,-17.64826393,-0.4731806815
22.3301226,11.13500023,-14.50409412,-0.06759724021
22.3401226,7.572087288,-15.14776421,-2.647658348
22.3501226,5.243870735,-14.15773296,-3.052045345
22.3601226,3.98165679,-12.97089291,-2.068595171
22.3701226,3.281756163,-11.9407835,-1.113260746
22.3801226,3.281756163,-11.9407835,-1.113260746
22.3901226,1.138983607,-8.833703041,0.8249256015
22.4001226,0.8380861282,-7.720442295,1.208973646
22.4101226,0.4336991012,-6.69511795,0.9774680734
22.4201226,-0.209371984,-5.902495384,0.7381857634
22.4301226,-0.209371984,-5.902495384,0.7381857634
22.4401226,-0.209371984,-5.902495384,0.7381857634
22.4501226,-0.209371984,-5.902495384,0.7381857634
22.4601226,-0.5276173949,-4.67976284,1.252044439
22.4701226,-0.5724828243,-1.424327731,1.720439434
22.4801226,0.732203722,-0.1447657645,1.642672777
22.4901226,1.989033818,0.8991031051,1.687538147
22.5001226,2.537588358,0.6293123364,0.5335994363
22.5101226,3.004786968,1.278963685,0.07537391037
22.5201226,5.06560564,1.484746456,-2.740978241
22.5301226,7.405786037,-0.2644068897,-5.113461971
22.5401226,5.867799282,-3.099901676,-1.856830359
22.5501226,3.312862873,-3.744169235,2.773879766
22.5601226,2.375474691,-3.221935749,2.624926329
22.5701226,0.9194421172,-3.467200041,1.028315544
22.5801226,-0.4881358147,-4.384847641,-0.09870393574
22.5901226,-2.593221426,-6.594619274,-1.269990563
22.6001226,-6.461219311,-15.00299835,-3.421736479
22.6101226,-4.219742775,-17.73141479,0.7836494446
22.6201226,-4.11386013,-23.72483635,7.852047443
22.6301226,-5.702694416,-26.95873642,11.9724884
22.6401226,-5.563910961,-25.82752991,12.46840096
22.6501226,-1.461416483,-16.29512215,6.290730953
22.6601226,-1.227517962,-15.60180187,3.476173162
22.6701226,-0.3613162339,-15.74477291,1.194018483
22.6801226,2.433500528,-15.45165253,-0.1818545163
22.6901226,5.933601856,-15.47737503,-3.180659533
22.7001226,7.996214867,-15.72682667,-5.118247509
22.7101226,4.944169998,-15.86800289,-2.90428853
22.7201226,3.65563488,-15.56650734,-1.537986755
22.7301226,2.653042078,-15.43968773,-0.5018945336
22.7401226,1.965703845,-15.09512138,0.1680957973
22.7501226,1.053440213,-14.52802277,1.216750264
22.7601226,-0.3272185028,-13.72044468,1.944766641
22.7701226,-0.5383850932,-13.57926846,1.518844128
22.7801226,-0.6161518097,-13.09711456,0.9421738982
22.7901226,-0.665802896,-11.81815147,0.06400800496
22.8001226,-0.2865405083,-10.70728302,-1.540977836
22.8101226,1.496710539,-9.191430092,-4.086342812
22.8201226,2.581257343,-8.079963684,-4.104289055
22.8301226,2.930609465,-7.369295597,-3.757927895
22.8401226,2.677568436,-7.165307522,-3.49471736
22.8501226,2.176272154,-6.796214581,-2.880958557
22.8601226,0.55154562,-5.342574596,-2.097907305
22.8701226,-0.366700083,-4.664807796,-1.962712765
22.8801226,-1.133599758,-3.961916208,-2.69850564
22.8901226,-1.197607756,-3.209373474,-3.68075943
22.9001226,-0.6209374666,-2.499901533,-4.559523582
22.9101226,1.181456208,-1.852044702,-4.53918457
22.9201226,2.20618248,-1.229910851,-3.650250912
22.9301226,2.928814888,-0.4773681164,-3.010170937
22.9401226,3.427120209,-0.1028913707,-2.345564365
22.9501226,3.476771355,-0.1686939895,-1.062413216
22.9601226,4.457828522,-0.6652047038,1.931007862
22.9701226,4.341776848,-1.801795483,3.752544165
22.9801226,4.104887009,-3.649652719,4.616353035
22.9901226,4.125226021,-5.102096081,4.999803066
23.0001226,4.350749969,-6.570691109,4.905286312
23.0101226,4.930410862,-8.337192535,5.073382378
23.0201226,10.18205833,-14.04527092,7.058826923
23.0301226,10.78923702,-17.93241119,8.74576664
23.0401226,6.486343861,-22.78146553,13.6977129
23.0501226,1.288534999,-25.04029083,9.94277668
23.0601226,-2.385644197,-25.53022194,2.967698336
23.0701226,-2.26540494,-25.29153633,-10.53380394
23.0801226,-3.091526747,-23.52623177,-6.805187702
23.0901226,-3.582653761,-22.02114677,-2.736790895
23.1001226,-2.618346214,-20.1547451,-0.2691925466
23.1101226,-2.150549412,-19.21496391,-0.4869394004
23.1201226,-2.150549412,-19.21496391,-0.4869394004
23.1301226,1.740778446,-19.4147644,-0.9134600163
23.1401226,4.109673023,-18.96611023,-2.730808735
23.1501226,6.302096844,-18.48335838,-3.878167391
23.1601226,6.476772785,-17.47119522,-4.92442894
23.1701226,3.580859184,-16.31964874,-3.496512175
23.1801226,2.974876642,-14.802001,-2.143969059
23.1901226,2.922234535,-13.26820183,-1.798804402
23.2001226,1.917847395,-11.82951736,-1.601994753
23.2101226,0.760917604,-10.31725311,-0.9984052777
23.2201226,-0.3834498227,-7.264609337,-1.050449133
23.2301226,-0.5042873621,-5.649454117,-1.447657704
23.2401226,-0.6334998012,-4.225126743,-1.175474167
23.2501226,-0.5760720372,-2.638685226,-0.7250252366
23.2601226,-0.9385846853,-1.666600943,-0.06879365444
23.2701226,-1.15393877,-1.142572761,0.2015953064
23.2801226,-1.15393877,-1.142572761,0.2015953064
23.2901226,0.5150550604,0.8267202377,0.8243274093
23.3001226,0.5150550604,0.8267202377,0.8243274093
23.3101226,0.5150550604,0.8267202377,0.8243274093
23.3201226,3.822534084,2.397010088,0.2787638307
23.3301226,3.635295868,1.925025821,-0.4277170599
23.3401226,3.236890793,1.322034478,-0.366700083
23.3501226,3.236890793,1.322034478,-0.366700083
23.3601226,-0.509073019,0.566500783,0.5431707501
23.3701226,-1.322034478,0.604187727,-0.8183453679
23.3801226,-1.755135417,0.8620143533,-2.434697151
23.3901226,-1.662413478,0.5330012441,-3.991826296
23.4001226,-1.975873351,-2.934198856,-5.155934811
23.4101226,-3.229114056,-5.841478348,-5.702096462
23.4201226,-5.198407173,-11.802598,-3.761517286
23.4301226,-5.883352757,-19.75095558,1.001396298
23.4401226,-5.164907455,-27.80041122,4.760520458
23.4501226,-5.964110374,-36.74597931,5.33599472
23.4601226,-5.964110374,-36.74597931,5.33599472
23.4701226,-5.964110374,-36.74597931,5.33599472
23.4801226,-0.6029912829,-15.67717552,2.524427891
23.4901226,0.6598208547,-11.31147099,0.9260223508
23.5001226,2.801397085,-8.898308754,-0.7657032609
23.5101226,2.801397085,-8.898308754,-0.7657032609
23.5201226,5.502295494,-7.424330235,0.793818891
23.5301226,4.063013077,-9.403793335,1.87956214
23.5401226,2.964707375,-11.17807102,2.444866419
23.5501226,2.113460541,-13.57508087,2.690729141
23.5601226,1.452443361,-19.57269096,3.49471736
23.5701226,0.3152543902,-21.36491585,3.202793121
23.5801226,-0.4079762697,-21.30988121,2.888136864
23.5901226,-1.010967612,-20.21875381,1.65463686
23.6001226,-0.9475577474,-18.0717926,0.05264209956
23.6101226,0.5246263742,-13.33819199,-1.68574357
23.6201226,1.453639746,-12.20100307,-1.813759565
23.6301226,2.216950178,-11.50349522,-2.005185366
23.6401226,2.438884497,-10.65284634,-2.333600283
23.6501226,2.388036966,-9.305686951,-3.394817114
23.6601226,1.599601984,-7.274778843,-9.999007225
23.6701226,1.573280931,-6.66640377,-10.56072235
23.6801226,2.199003935,-6.340381622,-7.738986492
23.6901226,2.382055044,-6.2841506,-4.691727161
23.7001226,2.393420935,-5.906084538,-4.080360889
23.7101226,2.111665964,-4.77009201,-4.141377926
23.7201226,2.111665964,-4.77009201,-4.141377926
23.7301226,0.8668000102,-1.749751568,-1.299900889
23.7401226,0.7160521746,-1.493719578,-0.7268198729
23.7501226,0.8536394835,-0.9840483069,-0.6867401004
23.7601226,1.438684583,0.007178467698,-1.608574986
23.7701226,2.520838737,0.5198407173,-2.853441
23.7801226,2.520838737,0.5198407173,-2.853441
23.7901226,3.182454109,0.4695914388,-3.449253798
23.8001226,3.614956856,0.1639083475,-3.130410194
23.8101226,3.464807272,-0.9140582681,-2.994617462
23.8201226,2.003988981,-4.500899315,-1.750947952
23.8301226,1.993819475,-6.169294834,-0.7136593461
23.8401226,2.306680918,-7.389634609,0.3385843933
23.8501226,2.938386202,-8.394021988,0.9439685345
23.8601226,4.818546772,-11.90369415,1.438684583
23.8701226,4.581058979,-18.12323952,6.050251961
23.8801226,0.9954141974,-20.49991035,7.7838521
23.8901226,-3.561118364,-24.46840668,8.322237015
23.9001226,-8.815756798,-29.07399178,5.19182682
23.9101226,-10.42672443,-30.03231621,-2.605185747
23.9201226,-8.163712502,-25.59662247,-6.344569206
23.9301226,-5.663811207,-24.71426773,-9.06341362
23.9401226,-2.750549555,-23.41257286,-9.504889488
23.9501226,-1.110269666,-22.11745834,-7.384849072
23.9601226,0.9308080077,-20.4299202,-5.491528034
23.9701226,5.035695076,-17.01536179,0.8267202377
23.9801226,8.176275253,-16.0259304,1.717448473
23.9901226,9.518648148,-16.16291809,0.2835494876
24.0001226,9.039485931,-15.56830215,-0.4259224236
24.0101226,6.485147476,-15.02453327,-2.438286304
24.0201226,3.771686792,-13.88614845,-3.457030535
24.0301226,2.401795626,-9.739386559,-2.833101988
24.0401226,1.749153376,-8.311469078,-1.801795483
24.0501226,0.4666004181,-6.497709751,-1.45782721
24.0601226,-1.023529887,-4.907679081,-1.83469677
24.0701226,-2.031506538,-3.600001574,-2.190030813
24.0801226,-2.700898647,-2.686541557,-1.571486235
24.0901226,-2.858226538,-2.67338109,-1.05822587
24.1001226,-2.862414122,-2.266601324,-0.4474578202
24.1101226,-2.562713146,-1.783849239,-0.1393819153
24.1201226,-1.77009058,-0.7890332937,0.08315058798
24.1301226,-0.1764706671,0.8105686903,0.8494520187
24.1401226,0.3451646566,1.720439434,1.078564763
24.1501226,0.9457631707,2.935395241,1.033101201
24.1601226,1.365703583,4.258625984,1.424925923
24.1701226,0.9631111026,4.84546566,1.861017823
24.1801226,0.2865405083,4.29691124,1.448255897
24.1901226,0.3475574851,3.82731986,0.1435693651
24.2001226,0.7788637877,2.596212626,-0.3547359705
24.2101226,0.9499505758,1.423131227,-0.4857429862
24.2201226,0.9493523836,0.5832505226,-0.5874379873
24.2301226,0.5018945336,-1.188036442,-0.9445667267
24.2401226,0.3326023519,-2.477169752,-2.168495417
24.2501226,0.1441675574,-5.217549801,-4.264608383
24.2601226,-0.1848455518,-11.7589283,-4.951348305
24.2701226,-0.04366901144,-20.7062912,-0.3625126183
24.2801226,-0.3164508045,-35.65903854,1.765903115
24.2901226,-3.302693367,-41.14697647,1.275374413
24.3001226,-5.167300701,-36.03351593,-0.6370890141
24.3101226,-4.343571186,-24.52703094,-1.631306887
24.3201226,-3.308675528,-17.96471405,-1.480558991
24.3301226,-1.791027784,-14.80439377,-1.197009563
24.3401226,1.529013634,-13.20180035,-0.5413761139
24.3501226,2.636292458,-11.72423267,1.01036942
24.3601226,3.384049416,-10.28435135,2.080559254
24.3701226,3.719642878,-9.925428391,3.114856958
24.3801226,3.728615999,-11.5519495,3.954139471
24.3901226,3.728615999,-11.5519495,3.954139471
24.4001226,3.728615999,-11.5519495,3.954139471
24.4101226,2.252244234,-17.59023666,4.811367989
24.4201226,1.852642894,-17.72782516,4.213162422
24.4301226,1.861017823,-17.11227036,3.809373617
24.4401226,1.861017823,-17.11227036,3.809373617
24.4501226,2.994617462,-14.98565006,-1.52542448
24.4601226,3.887140274,-13.87059498,-3.325425386
24.4701226,4.650450706,-12.65324593,-4.029513359
24.4801226,5.221737385,-11.07159042,-3.73998189
24.4901226,3.942175388,-8.309675217,-6.940382004
24.5001226,3.942175388,-8.309675217,-6.940382004
24.5101226,-0.07417750359,-7.10548687,-18.47857285
24.5201226,0.5168496966,-5.889933109,-15.29611874
24.5301226,1.393819213,-5.083551884,-9.108279228
24.5401226,1.122233868,-3.779463291,1.623530149
24.5501226,0.5569294691,-3.223730326,1.470987678
24.5601226,1.212562919,-2.264806747,0.8727820516
24.5701226,1.894517303,-1.034297585,0.02213360928
24.5801226,2.751745939,-0.01256231871,-0.1746760458
24.5901226,3.945166349,0.8578268886,-1.429113269
24.6001226,5.66740036,1.048654556,-2.737389088
24.6101226,5.334199905,1.058824062,-2.904886723
24.6201226,4.470989227,0.8327022791,-3.043670416
24.6301226,3.554538012,0.05264209956,-3.099901676
24.6401226,2.612962246,-1.227517962,-2.945564747
24.6501226,1.679163337,-3.847658873,-2.53818655
24.6601226,1.804786444,-5.725426197,-2.295913219
24.6701226,1.804786444,-5.725426197,-2.295913219
24.6801226,3.686143398,-12.04187965,-1.299302697
24.6901226,5.159523964,-16.00379562,-0.798604548
24.7001226,5.159523964,-16.00379562,-0.798604548
24.7101226,5.159523964,-16.00379562,-0.798604548
24.7201226,-6.832705021,-27.57189751,7.188039303
24.7301226,-11.98026466,-31.82514,4.56730032
24.7401226,-12.78485107,-31.50569725,-1.570888042
24.7501226,-12.78485107,-31.50569725,-1.570888042
24.7601226,-3.602992773,-21.90210342,-7.357929707
24.7701226,-0.8213363886,-21.3344059,-6.787241459
24.7801226,0.8943174481,-21.12623024,-4.601995945
24.7901226,0.8943174481,-21.12623024,-4.601995945
24.8001226,0.8943174481,-21.12623024,-4.601995945
24.8101226,0.8943174481,-21.12623024,-4.601995945
24.8201226,0.693320334,-20.64766693,-2.094317913
24.8301226,4.718646049,-13.61874962,-2.837887764
24.8401226,2.843271494,-12.58026505,-3.135794163
24.8501226,2.752344131,-11.06620693,-2.652443886
24.8601226,1.357328653,-9.226723671,-1.597209096
24.8701226,0.3996013701,-7.635497093,-2.036292076
24.8801226,-1.012762189,-3.804588079,-1.85443759
24.8901226,-1.442872047,-2.74935317,-1.494915962
24.9001226,-1.599003673,-1.813759565,-0.4025924206
24.9101226,-1.914258122,-1.36211431,0.01555334684
24.9201226,-2.636292458,-1.323829174,-0.01076770201
24.9301226,-2.814557552,-1.534397483,-0.7980063558
24.9401226,-1.734198213,-0.6149554253,-0.7740781307
24.9501226,-0.4426721931,0.7160521746,0.04426721856
24.9601226,0.9451649189,2.047657967,0.8237292171
24.9701226,1.973480463,3.082553864,1.509871125
24.9801226,3.870988846,4.8849473,1.308275819
24.9901226,4.112065792,4.962115765,-0.2656033039
25.0001226,4.725226402,2.978466034,-2.861815929
25.0101226,6.453442574,0.1926222295,-2.547159672
25.0201226,4.628317356,-1.920240164,0.5784648657
25.0301226,2.834896564,-2.079362869,0.584446907
25.0401226,-0.2321037948,-1.83469677,-0.7136593461
25.0501226,-0.4307080805,-1.300499082,-1.913061738
25.0601226,-0.7633104324,-2.675773859,-4.020540237
25.0701226,-1.508076429,-5.84746027,-4.268197536
25.0801226,-3.195614576,-11.5202446,-2.754737139
25.0901226,-4.89631319,-26.02493668,2.854637384
25.1001226,-6.909275532,-31.23291588,1.247856975
25.1101226,-10.052248,-36.11666489,1.913061738
25.1201226,-9.887143135,-34.64687729,1.123430252
25.1301226,-6.177071571,-25.86102867,0.2506481707
25.1401226,-1.371685624,-15.59761429,0.4348955154
25.1501226,0.5682953596,-12.43250847,0.4480560422
25.1601226,2.118246317,-10.94178009,1.028315544
25.1701226,3.554538012,-10.717453,2.14157629
25.1801226,4.321437836,-10.61456108,3.346960783
25.1901226,4.531407833,-12.27099228,5.726622581
25.2001226,4.585246563,-15.45703602,5.548357487
25.2101226,5.311468124,-17.19841194,4.712066174
25.2201226,5.442475319,-18.1585331,5.261816978
25.2301226,3.73699069,-18.5354023,6.349354744
25.2401226,2.94317174,-19.00977898,3.283550978
25.2501226,2.721237659,-17.86481476,2.36111784
25.2601226,3.319443226,-16.47219086,0.1501496136
25.2701226,4.189234257,-14.49332714,-2.362314224
25.2801226,5.108676434,-12.72263813,-3.716651678
25.2901226,4.643870354,-10.53679466,-9.652048111
25.3001226,1.070189953,-9.487542152,-21.68316078
25.3101226,-0.2368894368,-8.054839134,-25.1742897
25.3201226,0.3409772217,-6.940980434,-16.5649128
25.3301226,0.9960124493,-6.162714481,-7.875975609
25.3401226,1.825125456,-5.166104317,-1.085743308
25.3501226,1.687538147,-4.656432629,0.01316052489
25.3601226,0.8051848412,-4.327419758,-1.44347024
25.3701226,0.5796613097,-2.877369165,-1.483550072
25.3801226,1.153340459,-1.049850941,-1.229910851
25.3901226,2.16131711,0.2147558331,-1.280160069
25.4001226,4.277768612,0.4492524564,-2.544766903
25.4101226,5.166104317,0.6053841114,-2.913261652
25.4201226,5.600999832,0.8703892231,-3.106482029
25.4301226,5.500501156,1.017547846,-2.947957516
25.4401226,4.917848587,0.4612165689,-2.839084148
25.4501226,3.251247883,-1.861017823,-2.151147604
25.4601226,2.349751949,-3.07298255,-1.295713425
25.4701226,1.974078655,-4.15633297,-0.3511467278
25.4801226,1.912463546,-5.730810165,-0.337387979
25.4901226,2.409572363,-8.003992081,-1.077966571
25.5001226,3.749552965,-17.55015755,-0.3625126183
25.5101226,2.306680918,-20.42274094,2.663809776
25.5201226,-0.1220339537,-22.9902401,4.927420139
25.5301226,-3.227319479,-26.41795921,8.48973465
25.5401226,-8.562117577,-29.32404137,5.639883041
25.5501226,-10.4668045,-30.31526756,-1.312463164
25.5601226,-7.806583881,-26.2779789,-2.157727718
25.5701226,-4.241278172,-24.158535,-5.338387489
25.5801226,-1.571486235,-23.71526527,-6.967899323
25.5901226,0.5449653864,-22.73420715,-5.181657314
25.6001226,0.7477570772,-19.73181343,-0.1100698411
25.6101226,3.783052683,-17.66142464,-0.1716850251
25.6201226,6.814758778,-16.54636765,0.2398804724
25.6301226,6.816553593,-15.51207066,1.601396561
25.6401226,5.200201988,-13.95015621,-1.080957651
25.6501226,4.425525665,-12.46720409,-3.36849618
25.6601226,3.262015581,-10.28794098,-0.7824530005
25.6701226,2.04586339,-8.891729355,-1.439282775
25.6801226,0.6101697683,-7.573882103,-1.915454507
25.6901226,0.03050848842,-6.145965099,-2.258226395
25.7001226,-0.4199403822,-4.992624283,-2.33838582
25.7101226,-1.887937069,-3.321237803,-1.936391711
25.7201226,-2.571087837,-2.999403238,-1.438684583
25.7301226,-2.790629387,-2.634497643,-0.9822536707
25.7401226,-2.771486759,-2.447259426,-1.024128079
25.7501226,-2.365305185,-2.096112728,-1.226321578
25.7601226,-0.2081755698,0.7106683254,0.1310070455
25.7701226,0.7004988194,2.42273283,0.4755735099
25.7801226,1.512263894,4.280161381,0.5096712112
25.7901226,1.755733609,6.097510338,0.7429714203
25.8001226,1.147358418,7.074978352,0.5312066078
25.8101226,1.533799291,5.062614441,-0.6484549642
25.8201226,2.415554523,3.422334671,0.04366901144
25.8301226,2.303091764,1.718046665,0.9086744189
25.8401226,1.724028707,0.6777670383,0.3822534084
25.8501226,1.286740422,0.2213360965,-0.9391828775
25.8601226,0.6382854581,0.2697907388,-2.679363251
25.8701226,0.3702892959,-1.02711916,-3.435495138
25.8801226,-0.4265206456,-3.815355778,-3.126222849
25.8901226,-1.992623091,-8.894720078,-3.025724173
25.9001226,-3.809373617,-17.7571373,0.3589234054
25.9101226,-4.144967079,-35.38864899,3.405584812
25.9201226,-8.787641525,-45.68735886,3.437289715
25.9301226,-10.10010433,-45.40261459,2.179861546
25.9401226,-6.270391941,-31.60440063,0.27577281
25.9501226,-3.74536562,-21.34996033,0.1639083475
25.9601226,-1.68574357,-15.94098473,0.9726824164
25.9701226,3.918246984,-11.997015,-0.6472585201
25.9801226,6.039484501,-10.41236782,-1.203589797
25.9901226,6.833901405,-9.069993973,-0.6652047038
26.0001226,6.634698868,-9.139984131,0.4875376225
26.0101226,4.955535889,-10.98485088,2.19780755
26.0201226,2.199003935,-12.70229912,3.272783279
26.0301226,1.109671474,-13.08395386,3.687937975
26.0401226,0.3403790295,-14.53460312,3.613162279
26.0501226,-0.1752742529,-15.45464325,3.782454491
26.0601226,-0.9110672474,-17.26421547,3.72024107
26.0701226,1.133001566,-16.55055618,2.397010088
26.0801226,1.968096614,-14.78884029,1.726421595
26.0901226,2.744567633,-12.64188004,0.560518682
26.1001226,3.72024107,-11.16849995,-1.480558991
26.1101226,4.521836758,-9.555737495,-2.090130568
26.1201226,4.935196877,-5.741578102,-2.806182861
26.1301226,3.359523058,-6.322435856,-4.247858524
26.1401226,0.07597211748,-7.754539967,-9.766903877
26.1501226,-3.061616659,-7.749155998,-21.64487457
26.1601226,-2.748754978,-6.889534473,-25.81855583
26.1701226,3.367299557,-4.030709743,-4.889134884
26.1801226,4.119244099,-3.358326674,1.701895118
26.1901226,3.027518749,-3.110669374,3.969094515
26.2001226,2.454437733,-2.930011272,4.101896286
26.2101226,3.771686792,-1.902892232,3.074777126
26.2201226,3.132204771,-1.609173179,1.173081279
26.2301226,4.432105541,0.3816552162,-1.706082582
26.2401226,4.916652203,1.116251707,-3.471387386
26.2501226,4.487739086,0.8033902049,-5.495715618
26.2601226,3.186641455,-0.2847459018,-6.159125328
26.2701226,1.767697692,-1.735394597,-5.527420521
26.2801226,1.641476393,-5.05423975,-2.182852507
26.2901226,1.950748682,-6.477370739,-0.366101861
26.3001226,2.440679073,-7.984251022,0.4019941986
26.3101226,3.173480988,-9.009575844,0.680758059
26.3201226,4.101896286,-11.72243786,0.614357233
26.3301226,5.451447964,-20.9575367,4.372285366
26.3401226,1.408774376,-23.31386948,7.875975609
26.3501226,-3.893122435,-25.26581383,7.862216949
26.3601226,-8.026723862,-26.5298233,3.643670797
26.3701226,-9.811769485,-27.85903549,-0.6047859192
26.3801226,-8.062017441,-24.80579376,-2.680559635
26.3901226,-7.007380962,-22.49731827,-3.509672642
26.4001226,-3.853042603,-20.83670044,-6.848258495
26.4101226,-0.9272187948,-20.4311161,-7.025925636
26.4201226,0.3337987661,-21.49532318,-5.09372139
26.4301226,1.043270707,-20.10988045,-0.8536394835
26.4401226,2.100300074,-17.58365631,0.1674975902
26.4501226,5.830710411,-15.95713615,0.7375875711
26.4601226,7.147959232,-15.89073563,-0.4779663086
26.4701226,4.829912663,-14.97009659,-2.583052158
26.4801226,3.198007345,-11.66022491,-2.510669231
26.4901226,2.260619164,-10.25264645,-1.954936147
26.5001226,1.423131227,-9.45583725,-2.431705952
26.5101226,-0.4773681164,-8.113463402,-3.077169895
26.5201226,-1.573280931,-6.278766632,-3.437887907
26.5301226,-1.903490424,-4.444668293,-2.925225735
26.5401226,-1.986042738,-2.557329178,-0.1980060786
26.5501226,-1.875374794,-2.271985054,0.1776670814
26.5601226,-2.038684845,-2.035095692,-0.2667997181
26.5701226,-2.050050735,-1.479960799,-0.9864411354
26.5801226,-1.520638824,-0.290129751,-1.402792215
26.5901226,0.1040877849,3.223730326,-1.355534077
26.6001226,0.5814558864,4.794020176,-1.348355532
26.6101226,0.9200403094,5.736792088,-1.384247899
26.6201226,1.417149186,6.259624004,-1.455434322
26.6301226,2.393420935,5.326423168,-1.304686546
26.6401226,7.012166977,1.064806104,0.342771858
26.6501226,6.250650883,-0.9678967595,1.586441398
26.6601226,4.519443989,-2.039283037,1.223330617
26.6701226,3.221935749,-2.106880426,0.394217521
26.6801226,2.336591244,-2.084148407,-0.2267199457
26.6901226,0.6622136831,-2.83370018,-0.8075776696
26.7001226,0.1417747438,-4.216153622,-0.8997012973
26.7101226,-0.04426721856,-7.334001541,-1.351346612
26.7201226,-1.172483087,-13.62114334,-0.1938186288
26.7301226,-2.574677229,-20.71047783,2.863610506
26.7401226,-7.750950813,-28.23410988,2.201995134
26.7501226,-10.18863869,-33.37449265,1.173679471
26.7601226,-9.746564865,-33.56053543,-0.3822534084
26.7701226,-4.782654285,-26.7810688,-0.879960537
26.7801226,-0.8937192559,-19.70908165,-0.9158528447
26.7901226,4.558327198,-12.4803648,-1.261017561
26.8001226,6.142375946,-10.41476059,-0.01555334684
26.8101226,7.204789162,-9.214161873,0.9583254457
26.8201226,7.607979774,-8.990432739,2.005185366
26.8301226,6.898507595,-10.69292641,3.19382
26.8401226,5.708078384,-13.26640701,2.842075109
26.8501226,2.709273338,-14.18285847,2.092523336
26.8601226,0.9403793216,-16.24427414,1.665404558
26.8701226,0.1226321608,-18.2087822,1.103689432
26.8801226,-0.2644068897,-18.73041725,1.103689432
26.8901226,-0.2279163599,-17.88216209,0.1848455518
26.9001226,1.551745534,-14.41197109,-1.174875975
26.9101226,2.601596355,-12.95474148,-2.171486616
26.9201226,3.527020693,-11.77149105,-2.984447956
26.9301226,4.18205595,-11.04885864,-2.92941308
26.9401226,4.5930233,-10.06780148,-2.845066071
26.9501226,2.832503796,-6.553342819,-7.914859295
26.9601226,0.7800601721,-6.364908218,-11.45982552
26.9701226,-0.01495514158,-6.159723759,-12.24227905
26.9801226,0.6580262184,-5.782256126,-9.780662537
26.9901226,1.278963685,-5.790630817,-4.625924587
27.0001226,0.9409775138,-5.767899036,-0.6622136831
27.0101226,1.417149186,-4.703691006,-1.582852125
27.0201226,1.032503009,-3.003590584,-2.578864574
27.0301226,1.756929994,-1.509272933,-3.447459221
27.0401226,2.923431158,-0.1351944804,-3.419941664
27.0501226,3.601796389,0.5353940725,-3.341576815
27.0601226,3.666402578,0.1160518974,-2.180459738
27.0701226,3.23330164,-0.3655036688,-0.9637092948
27.0801226,2.832503796,-0.732203722,-0.5700899959
27.0901226,2.69850564,-1.467996716,-0.7908278704
27.1001226,2.54656148,-2.383251429,-0.6394818425
27.1101226,2.295913219,-4.831707001,0.5796613097
27.1201226,1.966900229,-6.326025009,0.6789634228
27.1301226,1.5224334,-7.731808186,0.4863412082
27.1401226,1.365105271,-10.23709393,0.06759724021
27.1501226,3.502494097,-16.79223061,0.7812566161
27.1601226,3.556332588,-24.49951363,7.996214867
27.1701226,-1.162313581,-26.32104874,10.80598736
27.1801226,-6.340980053,-28.31307411,7.292127132
27.1901226,-8.921041489,-29.91626549,2.431107759
27.2001226,-7.016952515,-27.01317215,-4.572684288
27.2101226,-4.457230568,-22.60978127,-8.059026718
27.2201226,-3.135195971,-22.72224426,-6.819544315
27.2301226,-0.2362912297,-21.46840477,-5.688935757
27.2401226,-0.9984052777,-21.30270195,-3.957728624
27.2501226,0.5659025311,-19.15514374,-2.803191662
27.2601226,12.02213955,-14.19063473,3.732205153
27.2701226,13.26042461,-14.61954784,0.6406782866
27.2801226,6.915257454,-15.13280869,-2.350948334
27.2901226,4.148556232,-12.93619728,-3.439084291
27.3001226,3.269193888,-10.88076305,-2.380858421
27.3101226,2.599801779,-8.37787056,-1.711466432
27.3201226,2.294118643,-7.849654675,-1.297508121
27.3301226,2.008176327,-7.456035137,-0.7597211599
27.3401226,0.5778666735,-6.476772785,-0.6634100676
27.3501226,-0.2386840582,-5.452644825,0.0484546572
27.3601226,-1.744965911,-3.155534744,0.6323033571
27.3701226,-1.490130305,-2.295913219,1.744965911
27.3801226,-0.9499505758,-1.842473388,1.931606054
27.3901226,-0.04067798331,-1.025324464,2.309073925
27.4001226,0.8626125455,-0.08853443712,2.629712105
27.4101226,1.790429592,0.8105686903,2.830709219
27.4201226,3.000001431,1.738385677,3.032902718
27.4301226,3.464807272,2.389831543,3.833301783
27.4401226,3.628117323,2.793620348,4.320241451
27.4501226,3.761517286,2.479562521,1.014556766
27.4601226,5.444269657,0.8985049129,-5.300102234
27.4701226,3.966701746,-2.745764017,-0.6556333899
27.4801226,2.959323406,-2.398804665,0.3870390654
27.4901226,1.600200176,-2.482553482,-0.2033899277
27.5001226,0.4163511395,-2.690729141,-2.172084808
27.5101226,-0.7914260626,-3.446262836,-3.948755503
27.5201226,-0.7914260626,-3.446262836,-3.948755503
27.5301226,-4.186243057,-11.52203941,-3.337987661
27.5401226,-3.915256023,-15.4295187,-2.241476536
27.5501226,-2.860619545,-18.60479355,1.310070395
27.5601226,-4.155136585,-24.00060844,6.044867992
27.5701226,-4.591826439,-35.78466415,7.701898098
27.5801226,-0.9296116233,-29.3659153,3.499503136
27.5901226,-0.04965107143,-21.91466713,2.855833769
27.6001226,-0.6693921089,-17.02612877,2.45383954
27.6101226,-0.6071787477,-13.328022,0.418743968
27.6201226,0.6083751321,-9.669994354,-0.4923232496
27.6301226,1.202393413,-9.002396584,0.05563312769
27.6401226,1.304088354,-9.237491608,0.8590233326
27.6501226,1.214357495,-9.681958199,1.535593987
27.6601226,0.5371887088,-11.24088287,2.002194405
27.6701226,-1.28614223,-15.27338696,2.989233732
27.6801226,-1.913061738,-16.94477272,2.239083767
27.6901226,-2.615953445,-18.45883179,1.728814363
27.7001226,-2.441277266,-18.90928078,0.3571287692
27.7101226,-1.138983607,-17.83191299,-1.158724308
27.7201226,1.001396298,-15.79621887,-1.822134495
27.7301226,5.177470207,-12.62931824,-5.645864964
27.7401226,6.180660725,-11.23968601,-8.764909744
27.7501226,5.311468124,-10.19162941,-10.3848505
27.7601226,3.888336897,-9.256634712,-9.373882294
27.7701226,2.854637384,-8.236693382,-6.536593437
27.7801226,1.722832322,-6.951747894,-2.525026083
27.7901226,2.533999205,-5.879165173,-3.309871912
27.8001226,3.253640652,-4.944169998,-4.268197536
27.8101226,3.016751051,-3.963710785,-5.704489231
27.8201226,3.265006542,-3.183052301,-5.736792088
27.8301226,2.985046148,-1.094716311,-3.789632797
27.8401226,2.489732027,-0.5521438122,-2.615355253
27.8501226,2.032104731,-0.2578266263,-1.551745534
27.8601226,2.224128723,0.2075773627,-0.9260223508
27.8701226,2.889333248,0.950548768,-0.2817548811
27.8801226,4.33340168,1.197009563,-0.4229314029
27.8901226,4.625924587,0.4103690982,-0.1776670814
27.9001226,4.551148891,-1.067198873,0.3822534084
27.9101226,4.098905087,-2.971885681,1.120439172
27.9201226,3.273979664,-4.796412945,1.881356835
27.9301226,2.394617319,-8.463413239,1.202991605
27.9401226,2.297708035,-10.47517967,-0.007178467698
27.9501226,2.373081923,-14.92822266,-1.917249203
27.9601226,1.021137118,-21.0957222,-0.1322034448
27.9701226,-1.469791293,-25.64148712,4.713860512
27.9801226,-2.617748022,-28.57688332,6.357131481
27.9901226,-4.663611412,-26.77807808,-1.387238979
28.0001226,-3.953541279,-23.16790771,-4.564907551
28.0101226,-4.670191765,-21.54557419,-3.872783422
28.0201226,-3.930211306,-19.47757721,-3.899702787
28.0301226,-1.054636598,-16.83530235,-2.09072876
28.0401226,5.435296535,-17.21994781,1.365105271
28.0501226,7.079165936,-18.38585091,0.4731806815
28.0601226,5.843272686,-18.68495369,-0.7830511928
28.0701226,5.032105923,-17.18345833,-2.222932339
28.0801226,4.057030678,-15.99542141,-1.749751568
28.0901226,3.991826296,-14.14098358,-2.921038151
28.1001226,4.18205595,-13.0331068,-3.176471949
28.1101226,4.192225456,-11.7589283,-2.651247501
28.1201226,3.991826296,-10.65224838,-2.113460541
28.1301226,3.126821041,-9.356534958,-1.270588875
28.1401226,-0.05862415582,-5.980860233,-1.160519004
28.1501226,-1.890329838,-5.056034088,-0.836291492
28.1601226,-2.981456995,-4.399204254,-1.142572761
28.1701226,-3.546761274,-3.730410576,-1.78684032
28.1801226,-3.37986207,-2.964108944,-1.834098577
28.1901226,-1.299900889,-2.32701993,-1.649851203
28.2001226,-0.3894318938,-1.993819475,-0.513858676
28.2101226,0.151944235,-1.339382529,0.4498506486
28.2201226,0.6969096065,-0.4109672904,0.5820540786
28.2301226,1.529013634,0.3445664644,0.7866404653
28.2401226,2.19242382,1.405783296,3.324228764
28.2501226,3.214159012,1.403390527,2.36111784
28.2601226,4.886742115,0.4815555513,-1.507478237
28.2701226,3.855435371,-1.163509965,-1.071984529
28.2801226,2.355135679,-1.552941918,-0.2662015259
28.2901226,0.9918249846,-1.373480201,-0.7824530005
28.3001226,-1.085145116,-0.7591229677,-1.371087432
28.3101226,-1.563111424,-1.385444283,-1.520638824
28.3201226,-1.887937069,-3.427120209,-1.889133453
28.3301226,-2.048854351,-6.676573277,-1.886142492
28.3401226,-2.817548752,-12.10708427,0.05383851007
28.3501226,-5.575276852,-26.77089882,2.688934565
28.3601226,-7.118049145,-34.95136261,1.213759303
28.3701226,-8.906683922,-42.87818527,-1.118046403
28.3801226,-6.334998131,-34.48894882,-2.175673962
28.3901226,-1.554138303,-21.55514526,-1.926222205
28.4001226,1.730010748,-12.91825104,0.1908276081
28.4101226,3.433700562,-11.37248802,1.236491084
28.4201226,5.375475883,-10.2275219,2.022533417
28.4301226,6.735795975,-8.243273735,1.019940615
28.4401226,6.804589272,-6.287739754,-0.1639083475
28.4501226,4.039084435,-5.562116146,2.003988981
28.4601226,2.563909531,-6.986443996,3.004188776
28.4701226,1.412961721,-8.54357338,3.128615618
28.4801226,0.2937189937,-10.05344391,2.621337175
28.4901226,-0.3224328458,-12.32542896,2.298306227
28.5001226,-1.141974568,-16.50329781,2.915056229
28.5101226,-1.070788145,-16.37288857,2.739183664
28.5201226,-0.6191428304,-15.76032639,1.332203984
28.5301226,0.4013960063,-14.50768375,0.1752742529
28.5401226,1.743769526,-13.5164566,-0.5024927258
28.5501226,4.336990833,-11.48554897,-1.939980984
28.5601226,4.18205595,-10.21854877,-2.502294302
28.5701226,3.077169895,-9.247062683,-2.629712105
28.5801226,1.207777262,-8.520243645,-5.136792183
28.5901226,-0.9104689956,-7.942376614,-10.4853487
28.6001226,-2.041675806,-7.561319351,-14.83490181
28.6101226,-0.06101697683,-5.301896572,-10.93938732
28.6201226,0.8219345808,-4.662415028,-5.941977024
28.6301226,1.025922656,-4.420141697,-1.103689432
28.6401226,0.9948160052,-4.405784607,0.4241278172
28.6501226,2.384447813,-3.547957659,-0.4031906128
28.6601226,5.045864582,-2.357528448,-1.347757339
28.6701226,5.458626747,-0.9409775138,-2.793022156
28.6801226,4.946562767,-0.55154562,-3.146561861
28.6901226,3.718446493,-1.382453322,-2.826521635
28.7001226,2.787638426,-2.077568293,-1.957927108
28.7101226,2.155933142,-3.722633839,-0.02691925503
28.7201226,2.59740901,-4.47397995,0.8368897438
28.7301226,2.398804665,-5.700900078,1.79521513
28.7401226,1.889731646,-8.251648903,2.500499725
28.7501226,2.206780672,-10.86161995,2.800798893
28.7601226,2.206780672,-10.86161995,2.800798893
28.7701226,5.309673309,-18.07298851,6.042475224
28.7801226,3.915256023,-20.74218369,9.453444481
28.7901226,-0.07118647546,-21.1459713,9.94277668
28.8001226,-3.272783279,-21.98046875,8.273183823
28.8101226,-3.753142357,-21.71187401,-1.706082582
28.8201226,-2.199602127,-21.65025902,-7.436294556
28.8301226,-1.050449133,-21.13041878,-9.291330338
28.8401226,-1.043270707,-20.55673981,-7.611568928
28.8501226,-1.962712765,-19.28555298,-5.246263504
28.8601226,-1.301695466,-18.44327927,-4.36211586
28.8701226,0.5264210105,-17.01237106,-0.3571287692
28.8801226,2.854039192,-15.43968773,-0.4815555513
28.8901226,4.976472855,-14.73440361,-0.5072783828
28.9001226,5.103890896,-13.99561977,-1.532004714
28.9101226,3.18843627,-13.15693569,-2.702095032
28.9201226,1.706680775,-11.81635666,-2.182254314
28.9301226,0.9134600163,-11.54656601,-1.8628124
28.9401226,0.7304090858,-10.74078274,-2.155334949
28.9501226,0.6586244106,-9.875179291,-2.063809633
28.9601226,0.4869394004,-9.055039406,-1.580459356
28.9701226,-0.3433700502,-7.556533813,-0.262014091
28.9801226,-1.051047325,-7.103094101,-0.1423729509
28.9901226,-1.314856052,-6.398407936,-0.3541377485
29.0001226,-1.344168067,-5.14397049,-0.446859628
29.0101226,-1.019342422,-3.771686792,-0.2883351147
29.0201226,-0.3505485058,-1.730010748,0.1674975902
29.0301226,0.156729877,-0.7375875711,0.6646065116
29.0401226,0.8787640929,0.132801652,0.8739784956
29.0501226,1.533799291,0.8021938205,1.091127157
29.0601226,2.017149448,1.289133191,1.311864972
29.0701226,2.11585331,0.8129615188,0.1501496136
29.0801226,2.076371908,0.7070791125,-0.4492524564
29.0901226,1.951945066,0.6173482537,-0.6801598072
29.1001226,1.735992789,0.614357233,-1.016351461
29.1101226,1.238285661,0.5437689424,-1.277169108
29.1201226,1.570888042,0.4767699242,-2.736790895
29.1301226,2.053041935,-1.063011408,-3.644867182
29.1401226,2.13559413,-3.427120209,-3.602394581
29.1501226,1.966900229,-5.484947681,-2.107478619
29.1601226,1.584048629,-10.04566765,-0.6867401004
29.1701226,1.135394335,-17.73081589,0.5694918036
29.1801226,-0.4761717021,-34.72464371,10.08036327
29.1901226,-3.299702406,-42.35056686,9.278767586
29.2001226,-3.519243956,-30.62633514,4.12821722
29.2101226,-1.942373753,-17.90070534,1.332203984
29.2201226,-1.625324726,-13.20778275,0.9661021233
29.2301226,0.6693921089,-11.96291637,-1.8855443
29.2401226,1.252044439,-11.82473087,-2.437688112
29.2501226,1.175474167,-11.94556904,-2.24267292
29.2601226,0.747158885,-13.10010624,-1.427916884
29.2701226,0.6311069727,-13.97707558,0.285344094
29.2801226,0.2697907388,-14.66261864,4.205984116
29.2901226,-0.509073019,-14.47956848,4.615755081
29.3001226,-1.692323804,-14.60638809,3.336791277
29.3101226,-2.458625317,-14.94556999,2.426920414
29.3201226,-2.670390129,-15.10828209,1.610967875
29.3301226,-0.4636093974,-13.30050468,0.6011967063
29.3401226,1.323230863,-12.35294724,0.1447657645
29.3501226,2.769692183,-11.48136139,-1.275972724
29.3601226,3.774677753,-10.63430214,-3.41635251
29.3701226,4.28614378,-9.708877563,-5.9515481
29.3801226,3.446262836,-7.666603565,-7.349554539
29.3901226,2.54117775,-6.433701992,-4.917250633
29.4001226,1.750947952,-5.439484119,-2.533999205
29.4101226,1.645663738,-4.700101852,-2.175673962
29.4201226,1.578066587,-3.564707518,-2.374278307
29.4301226,0.8195417523,-1.933998942,-3.774677753
29.4401226,1.28614223,-1.301097274,-4.66899538
29.4501226,1.323829174,-0.9158528447,-4.996811867
29.4601226,0.8416753411,-0.4378865361,-4.239483356
29.4701226,0.7190431952,0.3601198196,-3.267399311
29.4801226,1.207777262,1.128814101,-2.178664923
29.4901226,3.017947674,1.364507079,-0.6137589812
29.5001226,4.371088982,1.551147223,-0.4923232496
29.5101226,5.569892883,0.8267202377,-1.560120344
29.5201226,5.50109911,-1.35912323,-3.255435228
29.5301226,4.243072987,-4.115056515,-4.311866283
29.5401226,3.356531858,-9.26142025,-4.180261135
29.5501226,4.825725079,-13.17787266,-4.491926193
29.5601226,5.967699528,-17.50588989,-3.298506021
29.5701226,6.199803352,-22.04746819,-0.2524427772
29.5801226,5.84446907,-27.59223557,0.1274178028
29.5901226,0.3391826153,-31.78505898,0.994217813
29.6001226,-0.185443759,-24.71606255,0.8697910309
29.6101226,0.6610172391,-19.08874321,-0.3840480447
29.6201226,1.204786181,-17.08176231,-0.6616154313
29.6301226,1.597209096,-15.98884106,-0.09272187948
29.6401226,2.770290375,-16.77727509,0.5820540786
29.6501226,2.382653236,-17.30728531,0.4289134443
29.6601226,2.625524759,-16.90648842,-0.1375873089
29.6701226,3.427718401,-15.80758476,-0.5204389095
29.6801226,2.432902336,-15.61615849,-0.6759724021
29.6901226,0.70348984,-13.72762394,-2.035693884
29.7001226,2.641676188,-11.79482079,-3.251247883
29.7101226,5.553143024,-10.66600704,-3.491128206
29.7201226,5.880959988,-10.55115128,-1.928016901
29.7301226,4.212564468,-10.79282665,-1.749751568
29.7401226,3.079562664,-9.769296646,-1.052842021
29.7501226,-0.2727817893,-6.902695179,-0.7746763229
29.7601226,-1.205384374,-5.95214653,-0.614357233
29.7701226,-2.281556368,-4.92143774,-0.2237289101
29.7801226,-2.764308453,-3.754936934,-0.1034895778
29.7901226,-2.636292458,-3.031108141,-0.27577281
29.8001226,-2.07098794,-2.19242382,0.3978067636
29.8101226,-1.497906923,-1.526022673,0.2506481707
29.8201226,-0.566500783,-0.7567301393,-0.1477568001
29.8301226,0.102293171,-0.5060819983,-0.3876372576
29.8401226,0.8243274093,-0.185443759,-0.2249253243
29.8501226,2.970689297,-0.261415869,-0.8255237937
29.8601226,6.531807423,-0.4977070987,-7.204789162
29.8701226,8.977870941,-3.03888464,-2.140379906
29.8801226,5.993422508,-4.893920422,2.616551638
29.8901226,-1.39022994,-1.310070395,-0.8703892231
29.9001226,-2.63389945,-0.3511467278,-2.472982168
29.9101226,-3.079562664,0.09272187948,-3.051447153
29.9201226,-4.420141697,-0.9625129104,-2.088934183
29.9301226,-5.651846886,-3.308077335,0.3308077157
29.9401226,-7.593622684,-11.93181038,1.048654556
29.9501226,-7.593622684,-11.93181038,1.048654556
29.9601226,-9.502496719,-26.08236504,4.145565033
29.9701226,-11.31625652,-34.71686554,3.315854073
29.9801226,-12.04427242,-40.3094902,1.405783296
29.9901226,-12.04427242,-40.3094902,1.405783296
30.0001226,1.536192179,-15.82792377,-0.2835494876
30.0101226,3.764508247,-12.18365479,0.7160521746
30.0201226,5.435296535,-10.03489971,1.20179522
30.0301226,7.348956585,-9.615557671,1.338186026
30.0401226,7.348956585,-9.615557671,1.338186026
30.0501226,11.14397335,-11.35214901,1.236491084
30.0601226,9.326025963,-13.07258797,2.516651154
30.0701226,7.073183537,-14.38385487,2.418545485
30.0801226,4.93878603,-15.76630878,2.168495417
30.0901226,0.9918249846,-19.28016853,0.04905286431
30.1001226,-0.4127618968,-19.14497375,-1.429113269
30.1101226,-0.680758059,-17.29472351,-1.581057549
30.1201226,-0.3822534084,-15.49771404,-1.802991867
30.1301226,-0.1088734269,-14.11047554,-3.212364435
30.1401226,0.3637090325,-12.01316643,-4.781457901
30.1501226,1.710868239,-8.545966148,-7.125227451
30.1601226,1.805982947,-7.228717327,-7.436294556
30.1701226,1.85443759,-5.483152866,-6.949355125
30.1801226,2.120040894,-4.649254322,-6.020341873
30.1901226,2.289333105,-5.070989609,-4.556532383
30.2001226,1.570888042,-4.520640373,-2.587837696
30.2101226,1.568495274,-4.42373085,-2.833101988
30.2201226,1.928016901,-4.269991875,-3.083750248
30.2301226,1.900499344,-3.658027649,-3.42472744
30.2401226,1.555334687,-2.787638426,-3.611965895
30.2501226,2.027318954,-1.316052437,-2.756531715
30.2601226,2.3216362,-1.013360381,-1.889133453
30.2701226,2.544168711,-0.5581258535,-1.286740422
30.2801226,3.101098061,-0.1992024779,-1.331605792
30.2901226,3.369094372,0.3595215976,-1.031306505
30.3001226,3.320041418,-0.2123630047,-0.5641079545
30.3101226,3.153740168,-1.791625977,-0.5443671346
30.3201226,2.962314367,-3.6299119,-0.5461617708
30.3301226,3.000599623,-5.440082073,-0.4528416991
30.3401226,3.400799274,-7.37288475,-0.1435693651
30.3501226,5.534000397,-11.96351528,0.5132604837
30.3601226,6.460621357,-16.5661087,-0.06161518395
30.3701226,4.602594376,-18.85065651,2.336591244
30.3801226,1.191625714,-20.38684845,6.757929325
30.3901226,-2.330011129,-22.58046913,9.580264091
30.4001226,-9.641280174,-29.41975403,9.307481766
30.4101226,-11.25583744,-29.94976425,4.556532383
30.4201226,-10.21675491,-26.61596489,-1.976471543
30.4301226,-6.73400116,-22.73002052,-8.319844246
30.4401226,-3.238685369,-21.43012047,-10.18205833
30.4501226,-0.1794617027,-21.31586266,-7.79761076
30.4601226,-0.1794617027,-21.31586266,-7.79761076
30.4701226,7.231110096,-19.23709679,0.2440679073
30.4801226,8.546564102,-18.2464695,0.3702892959
30.4901226,8.709276199,-16.97348785,-3.178266764
30.5001226,5.986842155,-16.13420486,-3.534198999
30.5101226,3.671188116,-12.693326,-1.521835208
30.5201226,3.146561861,-11.26481056,-1.102493048
30.5301226,1.655235052,-10.26161957,-1.026520967
30.5401226,0.9421738982,-9.042476654,-0.2638086975
30.5501226,1.200000525,-7.917252064,0.2303091735
30.5601226,-1.508674622,-4.3986063,0.1268195957
30.5701226,-2.041675806,-2.646461725,-0.009571290575
30.5801226,-2.715255499,-1.694716692,-0.2500499785
30.5901226,-3.541377544,-1.008574724,-0.589232564
30.6001226,-4.144967079,-0.5898307562,-0.471386075
30.6101226,-3.477369547,0.2662015259,0.09451649338
30.6201226,-2.609971285,1.207777262,0.9212366939
30.6301226,-1.552343726,2.254637241,1.481755376
30.6401226,-0.4474578202,3.147160053,1.718644857
30.6501226,0.7537391186,3.901497364,1.557727575
30.6601226,3.678366661,4.911268711,-0.0951147005
30.6701226,3.678366661,4.911268711,-0.0951147005
30.6801226,7.438687325,-1.668993831,-7.523034573
30.6901226,7.543373585,-3.720839262,0.2201396823
30.7001226,6.231508255,-3.142374277,1.785643935
30.7101226,4.019941807,-2.638087034,1.273579836
30.7201226,-0.5497509837,-2.803191662,-3.785445452
30.7301226,-2.313261271,-3.677170277,-5.271986485
30.7401226,-4.365106583,-6.697510719,-4.030709743
30.7501226,-6.53958416,-13.8358984,-1.071984529
30.7601226,-6.658029079,-22.16770744,0.9343972206
30.7701226,-7.183253765,-33.55395508,2.316850424
30.7801226,-8.516056061,-37.24787521,0.9182456732
30.7901226,-5.638686657,-30.94577789,0.626919508
30.8001226,-2.635095835,-23.3419857,-0.2799602449
30.8101226,-0.5533402562,-17.79721642,-0.4061816335
30.8201226,2.580060959,-9.885947227,0.4390829504
30.8301226,3.822534084,-8.05065155,0.9062815905
30.8401226,4.630111694,-7.577471256,1.267597795
30.8501226,5.14097929,-7.374679565,1.948953986
30.8601226,5.655436516,-7.303493023,3.178864956
30.8701226,5.129015446,-8.483154297,6.518647194
30.8801226,3.599403381,-10.12283611,6.915257454
30.8901226,1.176072359,-14.2307148,7.036693096
30.9001226,-0.5198407173,-19.64806557,6.612565517
30.9101226,-0.8189435601,-23.85225487,4.755734921
30.9201226,-1.420738459,-21.15315056,0.9439685345
30.9301226,-0.3750749528,-17.78345871,-0.6101697683
30.9401226,0.8183453679,-14.68714523,-2.151745796
30.9501226,2.062014818,-12.92602825,-3.30089879
30.9601226,3.002394199,-12.09212875,-4.022335052
30.9701226,3.002394199,-12.09212875,-4.022335052
30.9801226,1.581655741,-8.358727455,-14.51546001
30.9901226,1.312463164,-6.594619274,-15.43669701
31.0001226,2.410170555,-4.75872612,-11.9850502
31.0101226,3.562314749,-4.016352654,-7.060023308
31.0201226,4.319045067,-3.762713671,-2.870789051
31.0301226,4.886143684,-4.712664127,-1.607976794
31.0401226,4.634299278,-4.840082169,-1.96151638
31.0501226,3.913461447,-3.06999135,-2.160718918
31.0601226,3.564109325,-1.965105653,-2.201995134
31.0701226,3.524029493,-1.504487276,-2.740978241
31.0801226,3.164507866,-1.172483087,-2.639283419
31.0901226,2.288136721,-1.256830096,-3.162115097
31.1001226,1.619342685,-0.9320043921,-3.456432343
31.1101226,1.239482164,-0.9774680734,-3.427120209
31.1201226,1.048654556,-1.6713866,-3.059223652
31.1301226,1.411167145,-4.107280254,-1.750947952
31.1401226,2.021337032,-5.451447964,-0.8608179688
31.1501226,2.717050076,-6.752545357,-0.08135596663
31.1601226,3.372085333,-8.285148621,0.1692921966
31.1701226,4.536193371,-11.24925709,0.1896311939
31.1801226,5.848058701,-17.94796371,1.048654556
31.1901226,2.919841766,-18.7495594,3.833899975
31.2001226,-0.3655036688,-20.92403793,6.410970211
31.2101226,-3.86620307,-23.24447823,9.273384094
31.2201226,-8.076375008,-27.03411102,9.343972206
31.2301226,-8.076375008,-27.03411102,9.343972206
31.2401226,-9.996016502,-23.61596298,-3.301496983
31.2501226,-7.327421188,-21.03410721,-6.416952133
31.2601226,-3.978665829,-21.05982971,-8.111668587
31.2701226,-1.689931035,-21.67059898,-6.878767014
31.2801226,0.6245267391,-19.62533379,-1.591227055
31.2901226,5.075775146,-16.88076591,1.063011408
31.3001226,9.388837814,-15.84228039,0.1932204217
31.3101226,8.117053032,-16.24367714,-1.31126678
31.3201226,7.417151928,-15.04367638,-2.155334949
31.3301226,5.614160061,-14.27258873,-2.147558212
31.3401226,5.614160061,-14.27258873,-2.147558212
31.3501226,5.614160061,-14.27258873,-2.147558212
31.3601226,5.614160061,-14.27258873,-2.147558212
31.3701226,5.614160061,-14.27258873,-2.147558212
31.3801226,1.15393877,-12.29910851,-1.371087432
31.3901226,-1.808973908,-3.695116282,-0.3720839322
31.4001226,-3.44147706,-1.537986755,-1.097707391
31.4101226,-4.054039955,-1.284347534,-1.165304661
31.4201226,-4.36989212,-1.115653515,-1.453041553
31.4301226,-4.260420799,-0.8129615188,-1.60378933
31.4401226,-3.766901016,-0.3613162339,-1.048056364
31.4501226,-1.78145647,1.556531072,0.1399801224
31.4601226,-0.6951149702,2.627917528,1.132403374
31.4701226,0.190229401,3.251846075,1.728814363
31.4801226,0.6598208547,3.46959281,2.196611166
31.4901226,1.027717352,3.977469444,2.172683001
31.5001226,3.00837636,3.933800459,-2.790629387
31.5101226,5.440680504,2.02073884,-4.210769653
31.5201226,3.954737663,-0.3343969584,-1.267597795
31.5301226,3.110071182,-1.186241865,-0.6293123364
31.5401226,2.019542217,-1.639083505,-1.043868899
31.5501226,1.144367456,-1.568495274,-1.013360381
31.5601226,-1.49132669,-4.295714855,-2.185245275
31.5701226,-2.870789051,-8.448458672,-4.826323509
31.5801226,-4.147359848,-17.17687798,-4.479962349
31.5901226,-4.651049137,-27.05803871,0.5647061467
31.6001226,-5.927619934,-35.3276329,1.105484009
31.6101226,-10.43031406,-42.26322937,2.849851847
31.6201226,-6.174080849,-29.30370331,1.291526079
31.6301226,-3.774079561,-19.99562263,0.8428717852
31.6401226,-1.939980984,-14.57288837,1.090528965
31.6501226,-0.1531406492,-11.75115204,0.8183453679
31.6601226,3.88056016,-10.4033947,0.128614217
31.6701226,5.300102234,-8.928817749,0.2727817893
31.6801226,6.123831272,-8.201399803,1.099501967
31.6901226,5.681159019,-8.672785759,2.234298229
31.7001226,4.430909157,-10.72821999,3.121437073
31.7101226,3.065205812,-13.21017551,3.435495138
31.7201226,3.660420418,-13.62532997,4.857429981
31.7301226,4.081557274,-14.77986717,7.298707485
31.7401226,3.50069952,-15.38345718,8.873184204
31.7501226,1.761117458,-15.85185146,9.265607834
31.7601226,1.57028985,-16.03191185,3.656233072
31.7701226,1.9812572,-15.44387531,0.8171489239
31.7801226,3.00538516,-13.76531029,-1.102493048
31.7901226,4.125226021,-12.31346512,-2.717050076
31.8001226,4.961517811,-10.81496048,-2.776272535
31.8101226,5.330012321,-9.651450157,-2.054238319
31.8201226,4.505684853,-8.085946083,-2.966501951
31.8301226,2.946761131,-8.11824894,-5.615954876
31.8401226,0.8937192559,-7.996214867,-12.34158134
31.8501226,-0.1489532143,-7.314260483,-18.13041687
31.8601226,1.529013634,-6.470192432,-18.18545151
31.8701226,3.172284603,-6.007181168,-1.843071699
31.8801226,3.339782238,-5.59142828,1.277767301
31.8901226,3.729812384,-4.742574692,0.2985046208
31.9001226,3.278765202,-3.867399693,-0.4259224236
31.9101226,2.369492531,-2.846262455,-0.8297112584
31.9201226,2.174477577,-1.05224371,-2.298904419
31.9301226,2.383251429,-0.4199403822,-3.102892876
31.9401226,2.158325911,-0.03529413417,-3.350549936
31.9501226,1.799402595,-0.2015953064,-3.611367464
31.9601226,1.350150228,-1.034297585,-3.714258909
31.9701226,1.223330617,-4.135395527,-2.997010469
31.9801226,1.402792215,-6.524031162,-2.126022816
31.9901226,2.112862349,-10.32084274,-1.754537225
32.0001226,4.289732933,-15.99003696,-2.55792737
32.0101226,5.300700188,-21.38525391,-2.980858803
32.0201226,-0.9487541914,-25.2628231,1.710868239
32.0301226,-5.450251579,-28.84966469,5.242674351
32.0401226,-11.02313614,-32.83431244,5.694319725
32.0501226,-14.6578331,-30.24228668,3.263810158
32.0601226,-13.31605816,-23.1158638,1.107278705
32.0701226,-6.076572895,-16.35913086,-5.300700188
32.0801226,-3.071187973,-17.13560104,-7.08036232
32.0901226,-1.220339537,-18.34995842,-7.018746853
32.1001226,-0.2003988922,-18.89133453,-3.699902058
32.1101226,2.807977438,-17.82652855,0.08673982322
32.1201226,9.383454323,-16.6151619,0.8620143533
32.1301226,9.493523598,-15.62692642,1.228116274
32.1401226,7.523034573,-14.49093437,-1.611566067
32.1501226,4.721637249,-12.47079372,-3.482155085
32.1601226,1.612762451,-9.713065147,-3.361317635
32.1701226,0.9523434043,-7.479365349,-3.187239647
32.1801226,-0.2566302419,-5.544768333,-2.082952023
32.1901226,-1.022333503,-4.16710043,-2.033899307
32.2001226,-1.777867198,-3.072384357,-1.910070658
32.2101226,-2.734398127,-2.395813704,-1.564906001
32.2201226,-3.527020693,-1.913061738,-0.8895317912
32.2301226,-2.766103029,-1.32801652,-0.1932204217
32.2401226,-1.852642894,-0.9457631707,0.03768695518
32.2501226,-0.9332008362,-0.17587246,1.037288666
32.2601226,0.5072783828,0.9972088337,1.864008784
32.2701226,1.827518344,2.066202402,2.551347256
32.2801226,3.119044304,3.318246841,3.000001431
32.2901226,4.328616142,3.753142357,3.237488985
32.3001226,5.38923502,3.131606579,2.547757864
32.3101226,5.859424591,1.358525038,-0.06640082598
32.3201226,5.179264545,-1.32263267,-1.460219979
32.3301226,0.4719842672,-2.498106956,-0.1549352705
32.3401226,-0.9152546525,-2.185843468,-0.4887340367
32.3501226,-1.615753531,-1.791625977,-1.676172256
32.3601226,-2.063809633,-2.734398127,-3.934398651
32.3701226,-2.528615236,-6.681957245,-5.704489231
32.3801226,-4.813760757,-21.07598114,2.019542217
32.3901226,-4.757529736,-29.14936638,2.039881229
32.4001226,-6.744170666,-36.88057709,1.289133191
32.4101226,-9.013762474,-39.74059677,1.496710539
32.4201226,-6.564110756,-30.41696358,-0.6275177598
32.4301226,-3.875774384,-20.23430634,0.05084748194
32.4401226,-0.3547359705,-11.56690502,0.4259224236
32.4501226,1.135992527,-10.41894817,-0.01136590727
32.4601226,2.044068813,-9.763314247,0.1351944804
32.4701226,3.001796007,-9.379266739,0.8404789567
32.4801226,3.504886866,-9.662218094,1.697707653
32.4901226,3.250649452,-13.21197033,3.024527788
32.5001226,3.807579041,-14.60997677,3.899104595
32.5101226,4.083351612,-14.89771366,5.55493784
32.5201226,4.305285931,-14.83490181,6.945167542
32.5301226,3.570689678,-15.59701633,7.79461956
32.5401226,3.000001431,-16.50329781,6.488736629
32.5501226,3.341576815,-16.50090408,4.699503899
32.5601226,3.752544165,-16.43749428,4.572085857
32.5701226,5.251647472,-16.83051682,3.277568817
32.5801226,6.353542328,-16.69950867,1.659422517
32.5901226,6.637091637,-14.71885014,-2.703889608
32.6001226,6.234499454,-13.09352589,-5.467599869
32.6101226,5.202594757,-11.2695961,-7.198208809
32.6201226,1.998605132,-9.803394318,-15.51865101
32.6301226,-2.273181438,-8.280961037,-27.51566505
32.6401226,1.516451359,-5.20558548,-16.82692719
32.6501226,3.619144201,-5.146961689,-6.198009014
32.6601226,5.62791872,-4.101896286,2.895315409
32.6701226,3.820739508,-4.630710125,6.069394588
32.6801226,2.139183521,-5.316852093,3.808177233
32.6901226,1.704287887,-5.514259815,0.9559326172
32.7001226,1.35912323,-1.724028707,-1.290927768
32.7101226,1.170090318,-0.6299105883,-2.548954248
32.7201226,1.346560955,0.2344966233,-5.305486202
32.7301226,2.745764017,1.189232826,-6.223133564
32.7401226,4.220939159,1.238883972,-4.800002098
32.7501226,4.068396568,-1.532602906,-2.486142635
32.7601226,3.387040377,-2.938984394,-1.204786181
32.7701226,2.74935317,-4.229912281,0.05383851007
32.7801226,2.416152716,-5.244469166,0.7591229677
32.7901226,2.522035122,-6.307480335,0.8392825127
32.8001226,3.674179077,-8.50469017,0.3074777126
32.8101226,5.737390518,-13.60379505,0.2063809484
32.8201226,7.189833641,-19.63550186,0.6622136831
32.8301226,4.541577339,-22.12343979,3.217149973
32.8401226,0.7076773047,-23.69073868,6.061019897
32.8501226,-8.776873589,-25.77787781,4.186841488
32.8601226,-12.10588837,-28.30410004,2.81695056
32.8701226,-11.04467106,-27.38645363,0.1357926875
32.8801226,-8.655437469,-24.70768929,-3.108276606
32.8901226,-7.050451756,-21.95953178,-6.125626087
32.9001226,-3.7256248,-18.71785545,-4.420739651
32.9101226,-1.663609982,-18.94098663,-3.62452817
32.9201226,0.1788634956,-18.85065651,-2.57766819
32.9301226,2.794816732,-16.99442482,-2.120040894
32.9401226,6.019145489,-15.74776363,-0.5718846321
32.9501226,7.604390144,-15.61256981,-2.073380709
32.9601226,4.648656368,-14.48076439,-2.053640127
32.9701226,3.668795347,-11.11825085,-1.112064362
32.9801226,2.392822742,-9.857831001,-3.014956474
32.9901226,1.725823283,-9.767501831,-1.579861164
33.0001226,1.396211982,-9.391230583,-1.258026481
33.0101226,-0.7268198729,-5.276174068,-2.916252613
33.0201226,-1.490728498,-3.312862873,-1.73360002
33.0301226,-1.585245013,-2.099103689,-0.6675975323
33.0401226,-1.968096614,-1.424925923,-0.6747759581
33.0501226,-2.207378864,-0.9367900491,-0.7058826685
33.0601226,-1.858026743,-0.708275497,-0.3918247223
33.0701226,-1.327418327,-0.5389832854,-0.59940207
33.0801226,-0.6203392744,-0.02991028316,-0.7944171429
33.0901226,-0.6203392744,-0.02991028316,-0.7944171429
33.1001226,-0.04247260094,0.2919243574,-0.9529415965
33.1101226,3.538984776,-0.1471585929,-2.720041037
33.1201226,6.394220352,-0.590429008,-2.690130949
33.1301226,6.862017155,-2.111665964,-0.8291130662
33.1401226,4.724628448,-3.52582407,-0.3571287692
33.1501226,2.412563324,-3.66101861,-2.031506538
33.1601226,-0.4779663086,-2.980858803,-3.032304525
33.1701226,-0.6119644046,-2.998805046,-2.987439156
33.1801226,-0.941575706,-3.620340586,-2.793022156
33.1901226,-1.37587297,-5.158327579,-1.402792215
33.2001226,-1.878963947,-7.988438606,-1.584048629
33.2101226,-3.592823267,-17.49990845,1.627119422
33.2201226,-3.810570002,-20.71825409,4.097708702
33.2301226,-4.991427898,-23.85046005,5.419145107
33.2401226,-5.770291805,-26.97847748,5.214558601
33.2501226,-4.615156651,-28.1736927,3.446262836
33.2601226,0.2979064286,-19.0127697,0.5946164131
33.2701226,2.005185366,-14.27617836,-0.4313062727
33.2801226,3.747160196,-11.0063858,-0.04007977992
33.2901226,5.246263504,-8.902496338,0.8021938205
33.3001226,6.077769279,-8.158926964,2.05124712
33.3101226,6.279364586,-8.679964066,2.985644341
33.3201226,3.656831264,-12.58744335,2.343769789
33.3301226,1.776072621,-14.23490238,1.787438512
33.3401226,-0.04247260094,-15.95593929,1.386042476
33.3501226,-1.336391449,-17.6697979,0.8584251404
33.3601226,-2.015953064,-19.06361771,0.1704886109
33.3701226,-0.9308080077,-16.82273865,-1.193420291
33.3801226,-0.9308080077,-16.82273865,-1.193420291
33.3901226,1.765903115,-13.84008598,-2.779263496
33.4001226,2.640479803,-13.27657604,-3.9170506
33.4101226,3.330809116,-12.46062374,-4.958526611
33.4201226,4.528416634,-10.54397297,-6.757929325
33.4301226,4.392624378,-9.565906525,-7.629515171
33.4401226,3.810570002,-8.252845764,-8.065009117
33.4501226,3.459423304,-6.717251301,-7.713861942
33.4601226,3.032304525,-5.723631859,-6.699903488
33.4701226,2.876172781,-5.834300041,-3.775874138
33.4801226,3.010170937,-5.204389095,-1.74735868
33.4901226,2.545963287,-4.570889473,-0.980459094
33.5001226,1.856232166,-4.157529354,-2.449054003
33.5101226,1.99800694,-3.848257065,-3.583850145
33.5201226,3.500101328,-2.041077614,-3.632304668
33.5301226,4.101297855,-1.016351461,-2.691327333
33.5401226,4.943571568,-0.2781656384,-2.686541557
33.5501226,5.611168861,0.1722832322,-2.62851572
33.5601226,5.315655708,-0.4731806815,-2.511865616
33.5701226,4.747360229,-1.084546804,-2.486142635
33.5801226,4.085744858,-2.34676075,-0.7501499057
33.5901226,3.959523201,-3.252444267,0.3547359705
33.6001226,3.933800459,-4.057629108,1.141376376
33.6101226,3.870988846,-5.804987907,1.253839016
33.6201226,4.092923164,-8.459226608,1.567298889
33.6301226,4.030111313,-14.21336651,5.156532764
33.6401226,3.62153697,-18.16451454,6.446862221
33.6501226,1.418345571,-22.69472694,9.798010826
33.6601226,-2.179263115,-26.1780777,13.30588818
33.6701226,-6.672386169,-26.62792778,12.0167551
33.6801226,-3.321237803,-21.13520432,-2.291127682
33.6901226,-1.234098315,-19.94417763,-5.781059742
33.7001226,-0.950548768,-20.9581356,-5.333601475
33.7101226,-0.1357926875,-22.51526451,-5.480760098
33.7201226,0.6747759581,-23.35095787,-6.058627129
33.7301226,2.97726965,-22.08336067,-2.755933523
33.7401226,2.435893536,-20.26840401,-3.228515863
33.7501226,4.979464054,-16.82214165,-1.838286042
33.7601226,7.153343201,-14.77388477,0.3493520916
33.7701226,7.377670288,-13.95613766,-0.3110669553
33.7801226,4.353740692,-11.91506004,-1.53918314
33.7901226,2.739781857,-10.93878841,-0.8787640929
33.8001226,1.398006678,-9.926026344,-0.08195417374
33.8101226,0.5180460811,-8.946166039,0.5964110494
33.8201226,0.2003988922,-8.234300613,0.9343972206
33.8301226,-0.2518445849,-6.314659119,1.974078655
33.8401226,-0.5371887088,-5.083551884,1.873580098
33.8501226,-1.249053478,-4.037290096,1.883151412
33.8601226,-2.035693884,-3.518047571,1.975873351
33.8701226,-2.435893536,-3.429512978,1.080957651
33.8801226,-2.328814745,-2.902493954,0.6562315822
33.8901226,-0.8548358679,-1.628913999,1.286740422
33.9001226,0.3272185028,-1.133599758,1.3310076
33.9101226,1.411765337,-1.025922656,1.709073544
33.9201226,1.887937069,-1.140179992,2.547159672
33.9301226,1.640279889,-1.222134113,1.842473388
33.9401226,4.161118507,-2.801397085,-11.30967617
33.9501226,6.55095005,-6.457630157,-8.452646255
33.9601226,6.26979351,-8.636295319,-1.175474167
33.9701226,6.100501537,-8.47238636,2.594418049
33.9801226,4.791627407,-7.514659405,2.281556368
33.9901226,0.3355933726,-5.566901684,1.202991605
34.0001226,-1.631306887,-5.681159019,-0.1088734269
34.0101226,-3.370888948,-7.06301403,-1.637288928
34.0201226,-4.960321426,-7.918448448,-1.965105653
34.0301226,-5.010570526,-9.792028427,-4.12821722
34.0401226,-3.382853031,-15.62692642,2.109871387
34.0501226,-1.864008784,-17.71945,8.15832901
34.0601226,-0.9206385016,-19.04507446,11.34796143
34.0701226,0.0185443759,-19.16950035,11.90369415
34.0801226,0.9332008362,-18.11426544,11.31147099
34.0901226,-0.04007977992,-17.47358704,7.752147198
34.1001226,0.342173636,-17.83789444,5.20618391
34.1101226,1.475773335,-18.37807465,1.113858938
34.1201226,2.663809776,-17.78046608,-4.608576298
34.1301226,3.050848961,-16.95554161,-8.781659126
34.1401226,-0.2207378894,-17.76311874,-6.153143406
34.1501226,-0.9631111026,-17.19063568,-3.37986207
34.1601226,-1.107876897,-15.39721584,-1.140778184
34.1701226,-1.207777262,-13.42612743,0.4342973232
34.1801226,-1.042074203,-12.25543976,1.865205288
34.1901226,-0.6927221417,-11.9593277,2.755335331
34.2001226,0.3056831062,-11.84506989,0.3810569942
34.2101226,1.064207911,-11.81994534,-1.44347024
34.2201226,2.117648125,-11.33300591,-3.16570425
34.2301226,3.097508907,-10.40159988,-4.34775877
34.2401226,3.729214191,-8.994022369,-4.720440865
34.2501226,4.321437836,-7.293323517,-4.004986763
34.2601226,3.888935089,-6.833303452,-2.766701221
34.2701226,2.952144861,-6.751348972,-1.665404558
34.2801226,2.073979139,-6.632306099,-1.452443361
34.2901226,1.384846091,-6.082555294,-1.220937729
34.3001226,1.384846091,-6.082555294,-1.220937729
34.3101226,1.043270707,-4.022335052,-3.409772158
34.3201226,1.594816327,-3.200998545,-4.287938118
34.3301226,1.892124534,-2.18644166,-5.105685234
34.3401226,1.784447432,-1.559522152,-5.260620594
34.3501226,1.42372942,-1.214955688,-3.332005501
34.3601226,1.744965911,-0.8356932998,-1.509272933
34.3701226,1.786242127,-0.994217813,0.1423729509
34.3801226,2.081755638,-1.865205288,0.8979067206
34.3901226,3.187838078,-2.440080881,1.308874011
34.4001226,6.058627129,-4.079762459,3.762713671
34.4101226,6.363711834,-5.181657314,4.79820776
34.4201226,6.777669907,-6.434299946,5.212764263
34.4301226,7.167700291,-8.758927345,5.271388054
34.4401226,7.885547161,-12.110075,6.265605927
34.4501226,7.885547161,-12.110075,6.265605927
34.4601226,-2.349751949,-25.33042145,15.03111362
34.4701226,-5.888736725,-27.55993271,12.30329609
34.4801226,-7.247261524,-26.93959427,6.57966423
34.4901226,-3.411566973,-23.06980133,-4.168296814
34.5001226,-0.4881358147,-22.43031883,-9.381659508
34.5101226,0.2249253243,-23.30788803,-5.237290382
34.5201226,-1.979462504,-23.93839645,-1.740778446
34.5301226,-2.606980324,-24.00240326,1.129412293
34.5401226,-0.2739782035,-22.80120659,0.4797609448
34.5501226,2.254637241,-20.36651039,-1.430907965
34.5601226,3.90030098,-16.6402874,-4.193421841
34.5701226,4.858626366,-15.29073524,-1.896311998
34.5801226,4.753342152,-14.6452713,-1.74735868
34.5901226,3.781856298,-13.26820183,-1.341775298
34.6001226,3.781856298,-13.26820183,-1.341775298
34.6101226,3.781856298,-13.26820183,-1.341775298
34.6201226,3.781856298,-13.26820183,-1.341775298
34.6301226,3.12383008,-12.41874981,-1.050449133
34.6401226,2.413161755,-8.824131966,0.7220342159
34.6501226,1.939980984,-7.741977692,1.363908887
34.6601226,0.02153540403,-4.801198483,1.447059512
34.6701226,-0.9164510965,-3.552145243,1.360319614
34.6801226,-1.333400369,-2.1302104,1.272383451
34.6901226,-1.223330617,-0.8542376757,1.567897081
34.7001226,-0.9116654396,0.1465603858,2.279761791
34.7101226,0.3894318938,1.739582062,3.319443226
34.7201226,1.165304661,2.171486616,3.990629911
34.7301226,1.643270969,2.200200319,4.036093712
34.7401226,1.523031592,1.941177368,3.343969584
34.7501226,1.363310695,1.832303882,2.370688915
34.7601226,1.786242127,1.551147223,0.72323066
34.7701226,3.557528973,-0.4049852192,-1.484746456
34.7801226,0.8769695163,-1.65164578,-0.7130611539
34.7901226,-0.8811569214,-1.35912323,-2.604587555
34.8001226,-1.716850281,-0.7286145091,-4.763511658
34.8101226,-1.80658114,-1.260419369,-6.993622303
34.8201226,-7.071987152,-5.940182209,-3.222533941
34.8301226,-7.466803074,-8.819944382,0.3008974493
34.8401226,-7.941180229,-15.35115337,0.7220342159
34.8501226,-7.173084259,-21.56112671,3.577867985
34.8601226,-6.967301369,-27.68735123,7.45184803
34.8701226,-7.085746288,-37.36272812,5.647061348
34.8801226,-2.728415966,-26.31147766,3.83270359
34.8901226,-1.025324464,-18.01974869,3.600001574
34.9001226,0.1196411327,-12.91705513,3.594019651
34.9101226,1.02711916,-10.01635551,3.635295868
34.9201226,3.337987661,-8.331210136,2.328216314
34.9301226,4.389034748,-9.057432175,1.532602906
34.9401226,4.752145767,-10.88016415,0.6987041831
34.9501226,3.432504177,-13.81555939,0.0239282269
34.9601226,1.755135417,-16.62951851,-0.1537388563
34.9701226,-1.479960799,-18.97089577,0.3553341627
34.9801226,-2.550748825,-18.79681778,0.6442674994
34.9901226,-2.714059114,-18.09213257,0.4857429862
35.0001226,-2.828914642,-17.4185524,0.6137589812
35.0101226,-2.594418049,-16.47219086,0.917647481
35.0201226,-0.7070791125,-13.78026581,0.7842476368
35.0301226,0.8356932998,-12.92184067,-0.104685992
35.0401226,2.090130568,-12.32662582,-1.666600943
35.0501226,3.081357241,-11.11346436,-3.498904943
35.0601226,3.856033802,-9.518050194,-5.855835438
35.0701226,4.424329281,-8.307282448,-8.805587769
35.0801226,5.614160061,-7.598408222,-8.791828156
35.0901226,6.412764549,-7.367500782,-5.870790482
35.1001226,6.175277233,-6.903891563,-4.997410297
35.1101226,5.521438122,-5.956333637,-6.646064758
35.1201226,4.231108665,-4.551148891,-5.741578102
35.1301226,2.649452925,-2.925225735,-1.916052699
35.1401226,2.746960402,-2.015354872,-0.4683950245
35.1501226,2.368296146,-1.156929731,-0.7902296782
35.1601226,1.840678811,-1.063609719,-2.036890268
35.1701226,1.379462242,-0.8943174481,-3.167499065
35.1801226,2.072782516,-0.3260220885,-2.888136864
35.1901226,2.7577281,-0.304486692,-2.37786746
35.2001226,3.393620729,-0.1465603858,-2.316850424
35.2101226,3.688536167,0.1262213886,-2.965305567
35.2201226,3.549154282,-0.8548358679,-3.824328899
35.2301226,2.306082726,-5.012365341,-1.883151412
35.2401226,1.803590059,-7.001997471,0.1280160099
35.2501226,1.476371527,-8.608179092,1.237089276
35.2601226,1.941177368,-10.76471043,1.071984529
35.2701226,3.202194929,-15.50788403,2.009372711
35.2801226,-1.084546804,-20.55255127,10.55593681
35.2901226,-3.808177233,-24.94577408,10.22512913
35.3001226,-6.580860615,-28.26521683,4.226921082
35.3101226,-8.036294937,-29.19841766,-5.744568825
35.3201226,-7.381857872,-26.52683258,-11.16969585
35.3301226,-4.162913322,-25.28854561,-7.490731239
35.3401226,-3.626920938,-24.38884544,-6.707081795
35.3501226,-0.8530412912,-21.58026886,-8.488538742
35.3601226,2.454437733,-18.94876289,-5.715256691
35.3701226,6.754938126,-17.61177254,-1.591825247
35.3801226,9.561120987,-17.33420563,-2.005185366
35.3901226,5.717051506,-17.14876175,-1.52542448
35.4001226,3.985844374,-17.6703968,-1.813161373
35.4101226,4.377070904,-15.18305779,-1.556531072
35.4201226,6.043671608,-11.88993549,-2.151745796
35.4301226,6.354140759,-9.948160172,-1.869990945
35.4401226,2.583052158,-7.188039303,-2.963510752
35.4501226,0.8380861282,-5.737988472,-2.35274291
35.4601226,-0.1549352705,-4.880161762,-1.192223907
35.4701226,-0.5359922647,-3.825525284,0.0197407864
35.4801226,-1.080957651,-2.997010469,0.5593222976
35.4901226,-2.132603168,-2.080559254,0.8817551732
35.5001226,-2.758924484,-1.960918188,0.793818891
35.5101226,-3.075973511,-1.692921996,-0.05324030295
35.5201226,-3.011367321,-1.332203984,-1.04685986
35.5301226,-2.596212626,-1.003789067,-1.478764415
35.5401226,-1.376471281,0.6963114142,-0.7591229677
35.5501226,-0.7447660565,1.922633052,-0.05982056633
35.5601226,-1.050449133,2.298904419,0.1908276081
35.5701226,-1.690529227,1.871187329,0.3481557071
35.5801226,-1.647458434,1.723430514,0.2805584669
35.5901226,-1.112064362,2.613560438,0.3553341627
35.6001226,-0.7770691514,3.419941664,0.7686942816
35.6101226,-0.679561615,3.917648792,-0.6693921089
35.6201226,3.118446112,3.519243956,-8.390432358
35.6301226,1.878365755,-1.048654556,-2.112862349
35.6401226,0.0197407864,-2.864208698,0.9373882413
35.6501226,-2.367697954,-4.689932346,-0.5150550604
35.6601226,-3.32063961,-8.679366112,-2.454437733
35.6701226,-2.891128063,-9.983454704,2.485544443
35.6801226,-2.675773859,-15.55753422,3.810570002
35.6901226,-3.137588739,-27.98645401,4.543970108
35.7001226,-8.185248375,-46.31367874,0.418743968
35.7101226,-7.852645874,-38.55375671,-1.398006678
35.7201226,-3.659822226,-25.55355072,-1.13120687
35.7301226,-0.24765715,-19.05584145,-0.4067798555
35.7401226,2.090130568,-15.0969162,0.4462614357
35.7501226,5.486144066,-11.79541969,1.768295884
35.7601226,6.440282345,-10.53918743,0.798604548
35.7701226,6.906284332,-8.910871506,-0.06580262631
35.7801226,6.957729816,-7.961519241,-0.390030086
35.7901226,6.256034851,-8.391031265,0.1028913707
35.8001226,4.110869408,-12.04008579,0.2099701911
35.8101226,3.314059258,-13.59063435,0.8243274093
35.8201226,2.13559413,-15.67897034,1.645065546
35.8301226,1.865205288,-17.50349808,2.54656148
35.8401226,2.038086653,-19.26760674,2.301297188
35.8501226,2.502294302,-16.36212158,0.7513462901
35.8601226,3.144767046,-13.90409374,-0.3846462369
35.8701226,3.735196114,-12.09631634,-1.610967875
35.8801226,4.07736969,-10.36331463,-2.359921217
35.8901226,3.622733593,-9.249456406,-2.249253273
35.9001226,1.881356835,-6.754938126,-4.87417984
35.9101226,0.2955136001,-6.358926296,-9.46002388
35.9201226,-1.53080833,-6.068198204,-14.83789349
35.9301226,-1.978864312,-5.91206646,-16.8161602
35.9401226,-0.8189435601,-5.706283569,-12.14656639
35.9501226,0.7190431952,-4.84845686,-4.531407833
35.9601226,1.551147223,-4.230510235,1.537986755
35.9701226,2.423929453,-2.849253654,0.3529413342
35.9801226,2.450250387,-1.460818172,-0.4516452849
35.9901226,3.351148129,-0.6592226624,-2.234298229
36.0001226,4.061816216,0.1316052526,-3.016751051
36.0101226,5.246263504,0.7052844763,-3.588037491
36.0201226,4.573282242,0.1088734269,-3.177668571
36.0301226,3.570689678,-1.039681435,-2.571087837
36.0401226,2.992822886,-2.529811859,-2.328814745
36.0501226,2.439482689,-3.926023722,-1.851446509
36.0601226,2.065006018,-6.498906136,-0.7345965505
36.0701226,2.195414782,-7.926225185,-0.546759963
36.0801226,3.008974552,-10.00259686,-0.5282155871
36.0901226,5.502893925,-15.59103394,-0.4438686073
36.1001226,5.249254704,-19.20539284,1.241874933
36.1101226,-1.553540111,-23.06023026,6.721438885
36.1201226,-5.959324837,-26.28396034,7.339983463
36.1301226,-11.11525917,-31.45843887,5.362315655
36.1401226,-12.97926807,-31.97648621,-0.07298108935
36.1501226,-10.7922287,-26.81456947,-3.187838078
36.1601226,-5.560919762,-20.60220337,-7.11685276
36.1701226,-3.290131092,-20.98625183,-7.345367432
36.1801226,-1.388435364,-21.79083824,-5.561518192
36.1901226,1.197607756,-21.2590332,-3.029313564
36.2001226,3.942175388,-19.31965065,0.1537388563
36.2101226,8.359924316,-17.17747498,0.3038884699
36.2201226,6.396613121,-17.07817268,-1.259222865
36.2301226,4.800002098,-14.91865063,-3.200400352
36.2401226,3.373281717,-13.07318687,-3.763910055
36.2501226,1.964507341,-11.07876873,-2.277369022
36.2601226,2.806182861,-8.696115494,-1.277169108
36.2701226,0.4480560422,-5.740979671,-1.167099237
36.2801226,-0.8309076428,-3.704089403,-1.786242127
36.2901226,-1.883151412,-1.968694806,-1.65463686
36.3001226,-2.365903378,-1.077966571,-1.05224371
36.3101226,-2.693720102,-0.8703892231,0.1447657645
36.3201226,-3.315854073,-1.288534999,-0.4301098585
36.3301226,-3.062813044,-1.253839016,-0.6251249313
36.3401226,-2.413161755,-0.6305087805,-0.7286145091
36.3501226,-1.34237349,0.8189435601,-0.4522434771
36.3601226,-0.1848455518,2.462812662,0.1232303679
36.3701226,0.442073971,2.688934565,0.7160521746
36.3801226,1.159322619,3.010170937,0.7734799385
36.3901226,1.345364571,3.738187075,0.6496513486
36.4001226,2.073979139,4.097708702,-0.8679963946
36.4101226,5.046463013,2.277369022,-5.474778175
36.4201226,3.028715372,-2.638087034,-1.113260746
36.4301226,2.359921217,-2.421536446,-0.6352944374
36.4401226,1.309472203,-2.188236237,0.204586342
36.4501226,-0.06221338734,-3.129812002,0.5288137794
36.4601226,-0.7704889178,-4.341776848,-0.156729877
36.4701226,-1.587637782,-12.20698452,-2.19242382
36.4801226,-2.942573547,-19.05943108,3.519243956
36.4901226,-3.674179077,-25.03490639,4.642076015
36.5001226,-7.00139904,-29.45145988,4.060021877
36.5101226,-9.602396965,-33.96791077,2.714059114
36.5201226,-9.43848896,-33.45285797,0.8410771489
36.5301226,-4.66540575,-19.58704758,-0.2596212626
36.5401226,-2.334198475,-15.47857189,-0.3248256743
36.5501226,-0.2943171859,-12.02453232,-0.6155536175
36.5601226,1.761715651,-9.929615974,-0.1160518974
36.5701226,3.311666489,-9.012566566,0.418145746
36.5801226,5.026124001,-10.54636574,1.679163337
36.5901226,4.822733879,-13.55055428,2.219342947
36.6001226,4.389633179,-14.32582951,2.983849764
36.6101226,4.04147768,-14.01536083,3.760320902
36.6201226,2.795415163,-15.12204075,4.48534584
36.6301226,1.692323804,-17.60818291,4.762315273
36.6401226,0.9990034699,-16.85863113,4.970490932
36.6501226,0.6185446382,-15.61735535,3.84706068
36.6601226,0.7537391186,-14.87737465,1.840678811
36.6701226,1.433300734,-13.62413406,-0.1788634956
36.6801226,3.01974225,-10.49970531,-2.930011272
36.6901226,3.215355396,-9.948160172,-3.088535786
36.7001226,3.142972469,-9.449854851,-3.191427231
36.7101226,2.44247365,-8.892327309,-4.38724041
36.7201226,0.4103690982,-8.556734085,-10.00977516
36.7301226,-1.402792215,-7.569694519,-21.76631165
36.7401226,0.9625129104,-6.662814617,-16.55115509
36.7501226,3.753142357,-5.443671703,-6.160920143
36.7601226,4.65463829,-4.758127689,1.37886405
36.7701226,4.674977303,-4.161716938,2.383849621
36.7801226,5.187041283,-2.893520832,0.1627119333
36.7901226,6.417550564,-1.188634634,-1.320838094
36.8001226,6.568896294,0.2506481707,-1.904686809
36.8101226,6.466004848,0.6610172391,-3.224328518
36.8201226,6.224927902,0.4929214716,-4.691727161
36.8301226,5.535795212,-0.1082752272,-5.0763731
36.8401226,3.95653224,-2.339582443,-3.535395384
36.8501226,3.60478735,-3.781257868,-2.660220623
36.8601226,3.287140131,-5.076971531,-1.424327731
36.8701226,3.126821041,-6.327221394,-0.5234299302
36.8801226,3.151945591,-7.864609718,-0.2985046208
36.8901226,4.031906128,-13.06241894,-1.640279889
36.9001226,4.355535507,-18.774086,-1.277767301
36.9101226,1.65164578,-20.81396866,2.328814745
36.9201226,-1.629512191,-23.13799667,6.888338089
36.9301226,-5.755934715,-26.20918465,9.175278664
36.9401226,-15.65264893,-31.96631622,2.554936409
36.9501226,-14.71286869,-27.10290337,-0.4893322289
36.9601226,-10.60738277,-22.04447746,-2.922234535
36.9701226,-5.976074696,-20.12304115,-6.526423931
36.9801226,-2.185843468,-20.25763702,-7.470392227
36.9901226,0.304486692,-21.38585281,-2.775076151
37.0001226,3.78484726,-20.84627151,-2.901895761
37.0101226,6.7202425,-19.93400764,-2.947359324
37.0201226,7.186842918,-18.78784561,-0.970289588
37.0301226,6.917650223,-17.22054672,1.596012712
37.0401226,4.936393261,-13.54457283,-4.009772778
37.0501226,3.79621315,-11.42273712,-2.109273195
37.0601226,2.279761791,-9.463015556,-1.896910191
37.0701226,0.8919246197,-8.200202942,-2.05722928
37.0801226,-0.7902296782,-6.50369215,-1.095314622
37.0901226,-2.105085611,-3.194418192,-0.1310070455
37.1001226,-2.502294302,-2.305484533,0.02153540403
37.1101226,-2.870190859,-1.551147223,0.2452643216
37.1201226,-3.247658491,-0.8973084688,0.5066801906
37.1301226,-3.93140769,-0.7112665176,0.4857429862
37.1401226,-4.176073551,-0.7429714203,0.1734796464
37.1501226,-2.42273283,0.2727817893,-0.5072783828
37.1601226,-0.6388836503,1.972882271,0.3242274821
37.1701226,0.5874379873,3.356531858,1.903490424
37.1801226,1.540379524,3.701098442,2.838485956
37.1901226,2.592623234,3.868596077,2.919841766
37.2001226,1.256231904,3.66101861,1.548754454
37.2101226,1.144367456,4.245465755,0.6520441771
37.2201226,1.165902853,4.114458561,-3.625126362
37.2301226,4.549354076,2.533999205,-8.228319168
37.2401226,3.756133318,-1.529013634,-3.114258766
37.2501226,1.841277003,-3.522234917,0.7489534616
37.2601226,0.7076773047,-3.267399311,0.4636093974
37.2701226,-0.3613162339,-3.788436413,-1.339382529
37.2801226,-1.45483613,-6.090332031,-3.747758389
