Time (s),Gyroscope x (rad/s),Gyroscope y (rad/s),Gyroscope z (rad/s)
12.85705236,-1.227533698,-0.2612976134,0.999833703
12.86705236,-1.204931736,-1.751197934,1.30068481
12.87705236,-1.155604362,-2.779895067,1.651474237
12.88705236,-0.9624181986,-3.565467834,2.196366072
12.89705236,-0.6849326491,-3.565315008,2.297158718
12.90705236,-0.2017382532,-3.406490088,2.233781576
12.91705236,0.3376557529,-3.003013611,1.981035948
12.92705236,0.7000515461,-2.363132238,1.606575608
12.93705236,1.1351403,-1.207985997,0.9053022861
12.94705236,1.463785887,-0.956309557,0.5910121202
12.95705236,1.927127123,-0.7988590002,0.3323107064
12.96705236,2.451096773,-0.6553056836,0.25167647
12.97705236,2.910161972,-0.6421720982,0.338724792
12.98705236,3.427259445,0.1287398487,0.3200933933
12.99705236,3.401603222,0.3445279896,0.2626720667
13.00705236,3.375641346,0.3507893682,0.1931861341
13.01705236,3.459788084,0.06856962293,0.1951714456
13.02705236,3.629150391,-0.3810271919,0.2376265824
13.03705236,3.737273455,-0.7218900323,0.2503020465
13.04705236,3.708868265,-0.2527455091,0.2651155293
13.05705236,2.908787489,0.8510879874,0.5604688525
13.06705236,1.350775719,1.094059706,0.9538660645
13.07705236,-0.1934915632,0.5166392922,1.15728426
13.08705236,-1.23929286,0.04978551716,1.2310462
13.09705236,-1.567938328,0.118049711,1.103833556
13.10705236,-1.245706916,0.1698205322,1.03144598
13.11705236,-0.8474228382,0.01053742506,0.9176723361
13.12705236,-0.5436700583,-0.05574145541,0.6652322412
13.13705236,-0.3639229834,0.1072068512,0.3764457107
13.14705236,-0.705091238,0.7426594496,-0.145691365
13.15705236,-1.28052628,0.9239336848,-0.3940080702
13.16705236,-1.846798301,0.9170614481,-0.6994407177
13.17705236,-2.307543516,0.7041749358,-1.038012743
13.18705236,-2.733927488,0.1656972021,-1.184162259
13.19705236,-3.42237258,-1.23822391,-1.410335183
13.20705236,-3.618002176,-1.784795523,-1.630093932
13.21705236,-3.784615517,-2.061975718,-1.94636941
13.22705236,-3.981314182,-1.830457687,-2.302503824
13.23705236,-3.846160412,-1.190270901,-2.734996319
13.24705236,-2.160172224,-1.845729351,-3.838982582
13.25705236,-2.174680233,-0.8437576294,-3.932445049
13.26705236,-2.197129488,1.109178543,-3.754683256
13.27705236,-1.649183393,2.14184618,-3.169016123
13.28705236,-1.428202987,2.305558205,-2.20522356
13.29705236,-1.445765376,2.495079041,-1.493718266
13.30705236,-1.776243448,1.184314966,-1.009454846
13.31705236,-1.975538254,0.2255619913,-0.7420485616
13.32705236,-1.96591711,-0.2987131178,-0.3614795208
13.33705236,-1.735162735,-0.3875939846,-0.01695151068
13.34705236,-1.163087368,-0.2527455091,0.2525927722
13.35705236,-0.2345722616,0.3836233616,-0.1288925707
13.36705236,-0.05009094998,0.9112582207,-0.2643519342
13.37705236,0.2151772827,1.247844934,-0.09941831976
13.38705236,0.3683517575,0.837954402,0.06658431143
13.39705236,0.5175555944,0.4382958114,0.1447750628
13.40705236,1.016785145,0.3721696436,0.02886338346
13.41705236,1.146746755,0.1705841124,0.1618792862
13.42705236,1.185842156,-0.0300851129,0.3938553631
13.43705236,1.21607995,-0.2038762718,0.6065891981
13.44705236,1.325272202,-0.1838704348,0.7528914213
13.45705236,1.440725684,0.2935207486,1.120326877
13.46705236,1.4198035,0.6453791261,1.305419087
13.47705236,1.294881582,0.8552113175,1.449583173
13.48705236,1.077566266,0.8536841869,1.503644824
13.49705236,0.8411614299,0.7913759351,1.448819637
13.50705236,0.5517640114,0.6293439269,1.123686671
13.51705236,0.5937610269,0.3759875596,0.9109528065
13.52705236,0.5684100986,0.08918632567,0.6275113225
13.53705236,0.3263547719,-0.03573561832,0.1365283877
13.54705236,-0.153632611,0.2646573782,-0.3921754956
13.55705236,-0.1996002197,1.180802464,-0.9694431424
13.56705236,-0.08368854225,1.355204582,-1.023657441
13.57705236,-0.001985311974,1.408197165,-1.124755621
13.58705236,0.07299839705,1.382540822,-1.210582256
13.59705236,0.1704314053,1.23669672,-1.257924199
13.60705236,0.3801108897,0.7990117669,-1.264185667
13.61705236,0.7832819819,-0.6966918111,-1.128878951
13.62705236,0.09193521738,0.008857546374,-0.8712465763
13.63705236,-0.7527387142,1.280373573,-0.153632611
13.64705236,-1.449125051,1.683086514,0.5552765131
13.65705236,-1.716073155,1.212720275,1.266170979
13.66705236,-1.22692287,-1.383915186,2.03143239
13.67705236,-0.889267087,-2.397951603,2.056019783
13.68705236,-0.6658431292,-2.608089209,2.38161087
13.69705236,-0.4448626041,-2.587930679,2.719572067
13.70705236,-0.3145956099,-2.58945775,2.801122665
13.71705236,0.4969388843,-2.047314882,2.397340536
13.72705236,0.9098837972,-1.758833766,2.059990406
13.73705236,1.208749652,-1.27380681,1.629941225
13.74705236,1.495550871,-0.5705481172,1.185231328
13.75705236,1.803121448,-0.09071348608,0.8368853927
13.76705236,2.392453671,0.4780020416,0.7058547735
13.77705236,2.630843878,0.6777549982,0.7480044961
13.78705236,2.902984381,0.602465868,0.7250970602
13.79705236,3.120604992,0.5746715069,0.6427829266
13.80705236,3.270877838,0.9705121517,0.5372560024
13.81705236,3.271794319,1.452942967,0.432492584
13.82705236,3.281873465,1.199281216,0.4274529517
13.83705236,3.409238815,0.9950994849,0.3576616049
13.84705236,3.496287346,0.8936958313,0.2434297949
13.85705236,3.458719015,0.7322747111,0.1133155003
13.86705236,2.983313084,1.085202098,0.06352998316
13.87705236,2.018146038,1.446834326,0.3368921876
13.88705236,0.6873761415,1.234405994,0.6322455406
13.89705236,-0.5461135507,0.6407976151,0.8350527883
13.90705236,-1.325577617,0.2825251818,0.8918632865
13.91705236,-1.622152686,0.2313652188,0.884685576
13.92705236,-1.200197458,0.1409571618,0.5868887901
13.93705236,-0.8329147696,0.2304489166,0.4390594065
13.94705236,-0.5732970238,0.3875939846,0.2477058619
13.95705236,-0.413403064,0.4654793143,0.02443460934
13.96705236,-0.4043927789,0.5204572082,-0.1644754708
13.97705236,-1.193783402,0.8324565887,-0.5215262175
13.98705236,-1.857488513,0.9920451641,-0.7820602059
13.99705236,-2.503936529,0.8162686825,-1.088256478
14.00705236,-3.058296919,0.4002694488,-1.255633473
14.01705236,-3.494149208,-0.05115996301,-1.40743351
14.02705236,-3.764304399,-0.6647741199,-2.269669771
14.03705236,-3.635564566,-0.4599815309,-2.893821478
14.04705236,-3.160922289,-0.350025773,-3.647323608
14.05705236,-2.419484615,-1.399492264,-4.35989809
14.06705236,-2.198045969,-1.325883031,-4.363563061
14.07705236,-2.308306932,1.162781954,-3.903123379
14.08705236,-1.864207983,1.910939217,-3.30783534
14.09705236,-1.590693116,2.566092253,-2.40741992
14.10705236,-1.406975389,2.986672878,-1.623068929
14.11705236,-1.375668526,2.396271706,-1.217301726
14.12705236,-1.565647602,0.01328631863,-0.7609853745
14.13705236,-1.496772528,-0.3123048544,-0.5015203953
14.14705236,-1.27487576,0.08353582025,-0.04077525437
14.15705236,-0.869566679,0.31047225,0.2930625975
14.16705236,-0.4280638099,0.4610505402,0.1221730486
14.17705236,0.07513642311,0.6817256212,-0.2107485086
14.18705236,0.495869875,0.6009386778,-0.4818199575
14.19705236,0.4673119187,0.05818491429,-0.3955352604
14.20705236,0.5426010489,-0.1992947906,-0.4457789063
14.21705236,0.7163922191,-0.1484402567,-0.4178318381
14.22705236,0.8764389157,-0.1817324162,-0.2997821271
14.23705236,1.040456176,-0.5650503635,0.1702786833
14.24705236,1.051909924,-0.6951646209,0.4320344329
14.25705236,1.012661815,-0.5731443167,0.6939429045
14.26705236,0.971581161,-0.275958389,0.9508117437
14.27705236,0.955087781,0.1221730486,1.187369347
14.28705236,0.897208333,0.9592111707,1.582599163
14.29705236,0.7805330753,1.188896537,1.695151091
14.30705236,0.6543893814,1.171486855,1.714851499
14.31705236,0.522900641,0.9544769526,1.682170153
14.32705236,0.4279111028,0.6400340796,1.590234995
14.33705236,0.555123806,0.2139555514,1.09696126
14.34705236,0.5734497309,0.3043636084,0.7446447611
14.35705236,0.2897028327,0.8590292335,0.314748317
14.36705236,-0.07299839705,1.770134807,-0.2144137025
14.37705236,-0.07971791178,2.263713837,-0.5865833759
14.38705236,0.141720742,1.864055276,-0.8077165484
14.39705236,0.1882992089,1.430341005,-0.7783950567
14.40705236,0.2545780838,1.091463447,-0.7533495426
14.41705236,0.4864014387,0.5447390676,-0.7530441284
14.42705236,0.8239045143,-0.236099422,-0.767552197
14.43705236,0.1302670091,-0.4702135324,-0.8359690905
14.44705236,-1.015563488,0.4639521539,-0.6898195744
14.45705236,-1.543656468,1.194699645,-0.2199114859
14.46705236,-1.475697756,1.407891631,0.3878994286
14.47705236,-1.038776398,1.016937971,1.002735257
14.48705236,-0.7008151412,-0.2342668176,1.375057697
14.49705236,-0.2648100853,-1.799609065,1.964084506
14.50705236,-0.3145956099,-2.052812576,2.213164806
14.51705236,-0.4214970171,-2.158645153,2.294562578
14.52705236,-0.3152064681,-2.108248711,2.25684166
14.53705236,0.007024950348,-1.937511802,2.183843136
14.54705236,0.5616905689,-1.481500983,1.745852828
14.55705236,0.7473936081,-1.085049391,1.377806544
14.56705236,0.9324858189,-0.743881166,1.038776398
14.57705236,1.16507268,-0.5676465034,0.8903360963
14.58705236,1.468672752,-0.4859432876,0.9048441648
14.59705236,1.890475273,-0.2096794993,1.003346205
14.60705236,1.986381054,-0.2170098722,0.9738719463
14.61705236,2.089770079,-0.0239764601,0.8611672521
14.62705236,2.19957304,0.3750712574,0.7666358948
14.63705236,2.334574223,0.6061310172,0.7041749358
14.64705236,2.974608421,1.127810001,0.5447390676
14.65705236,3.35273385,1.012509108,0.4103487432
14.66705236,3.59875989,0.4999932051,0.2582432926
14.67705236,3.686877251,-0.04627304152,0.1246165112
14.68705236,3.643963814,-0.05283984542,0.1197295859
14.69705236,1.352455616,0.8258898258,0.8865181804
14.70705236,-0.1802052408,-0.04138612002,1.010218382
14.71705236,-0.9931141734,-0.2544253767,0.8785769343
14.72705236,-1.146594048,0.0720821023,0.7389942408
14.73705236,-0.9393580556,0.428827405,0.7040221691
14.74705236,-0.6360634565,0.519540906,0.204639852
14.75705236,-0.6659958363,0.4201225638,-0.06078109145
14.76705236,-0.8000807762,0.2043344229,-0.3046690524
14.77705236,-1.081536889,-0.004734205548,-0.53481251
14.78705236,-1.425759435,-0.1973094791,-0.7696902156
14.79705236,-1.800067186,-0.338724792,-0.9772316813
14.80705236,-2.393369913,-0.6687447429,-1.244179845
14.81705236,-2.604729414,-0.8935431242,-1.37444675
14.82705236,-2.780964136,-1.067487001,-1.517847419
14.83705236,-2.937803745,-1.097877502,-1.672854424
14.84705236,-3.11495471,-0.972192049,-1.900096297
14.85705236,-2.963765383,-0.7098253965,-2.918408632
14.86705236,-2.317775488,-1.207222462,-3.45688653
14.87705236,-2.160477638,-0.3332269788,-3.78079772
14.88705236,-2.020742178,0.6989825368,-3.719405651
14.89705236,-1.532660842,1.337947607,-3.455512047
14.90705236,-1.273043156,2.611296177,-2.203849077
14.91705236,-1.57297802,2.538755894,-1.863139033
14.92705236,-1.862222672,1.826945186,-1.657735586
14.93705236,-1.963320851,1.107345939,-1.200044751
14.94705236,-1.910328388,0.5639813542,-0.6084218025
14.95705236,-1.094975948,0.4621195495,-0.3014619946
14.96705236,-0.7076873779,1.055117011,-0.7739662528
14.97705236,-0.4663956165,1.565189481,-0.7484626174
14.98705236,-0.381179899,1.313513041,-0.3092505336
14.99705236,-0.3472768962,0.8155050874,0.03359758854
15.00705236,-0.184786737,-0.2235766798,0.2510656118
15.01705236,0.04016438872,-0.2504547536,0.2628247738
15.02705236,0.2564106882,-0.1348485053,0.3900374472
15.03705236,0.3747658134,-0.1786780804,0.570242703
15.04705236,0.4196644127,-0.3338378668,0.7878634334
15.05705236,0.5464189649,-0.001832595794,1.288772941
15.06705236,0.6389650702,0.4280638099,1.546099901
15.07705236,0.7151705027,0.8837692738,1.76326251
15.08705236,0.7073819637,1.164614558,1.945453048
15.09705236,0.613155961,1.259756804,2.082745075
15.10705236,0.4899139404,1.182329655,2.085035801
15.11705236,0.286801219,0.8672759533,1.685682654
15.12705236,0.4120286107,0.739299655,1.35276103
15.13705236,0.5426010489,0.786030829,0.9413433671
15.14705236,0.3868304193,1.089478135,0.5123631954
15.15705236,0.07635815442,1.495856285,0.02061670274
15.16705236,-0.01817324013,1.894904017,-0.724180758
15.17705236,-0.084604837,1.680032134,-0.80710572
15.18705236,-0.1305724531,1.263422012,-0.9275988936
15.19705236,-0.09193521738,0.8723155856,-1.079856992
15.20705236,-0.02550362423,0.6186537743,-1.164461851
15.21705236,-0.04581489414,0.4552473128,-1.162781954
15.22705236,-0.1803579628,-0.1459967941,-1.11085844
15.23705236,0.04566217586,-0.8304712772,-1.02579546
15.24705236,-0.1999056488,-0.488081336,-0.9332493544
15.25705236,-0.9059131742,0.783434689,-0.5894849896
15.26705236,-1.601077795,1.014341712,1.009760261
15.27705236,-1.537547827,-0.2854267955,1.619251013
15.28705236,-1.36772728,-1.766622305,2.000431061
15.29705236,-1.152855396,-2.644741058,2.273640394
15.30705236,-0.9364564419,-2.888781786,2.472171545
15.31705236,-0.4631885588,-2.836552858,2.419179201
15.32705236,-0.1852448881,-2.773328304,2.179719925
15.33705236,0.2127338201,-2.584112644,1.808924675
15.34705236,0.6233879924,-2.317775488,1.459357023
15.35705236,0.8982773423,-1.765095115,1.166294456
15.36705236,1.089630842,-1.090852618,0.8924741149
15.37705236,1.089630842,-1.090852618,0.8924741149
15.38705236,1.750434399,-0.5595525503,0.5975789428
15.39705236,2.02013135,-0.408821553,0.707840085
15.40705236,2.358550787,-0.3518583775,0.8381071091
15.41705236,2.659096479,-0.5549710989,0.9256135821
15.42705236,2.883131266,-0.7145596147,0.9647089243
15.43705236,2.985451221,-0.4103487432,0.9161451459
15.44705236,3.043941498,-0.2553416789,0.9521862268
15.45705236,3.039970875,-0.3436116874,0.9347765446
15.46705236,2.93093133,-0.4851797223,0.8181012869
15.47705236,1.860084653,-0.02916881628,0.6673702598
15.48705236,0.6849326491,-0.4558582008,0.7660250068
15.49705236,-0.3034473062,-1.02732265,0.8074111342
15.50705236,-0.9946413636,-1.143997908,0.8017606139
15.51705236,-1.436602354,-0.8080220222,0.7896960378
15.52705236,-1.564884067,-0.07727445662,0.7389942408
15.53705236,-1.445918083,0.0479529202,0.7357872128
15.54705236,-1.357342601,0.02260201424,0.6157521605
15.55705236,-1.351539373,-0.06856962293,0.4676173329
15.56705236,-1.38009727,-0.2664899528,0.2956587672
15.57705236,-1.500285029,-0.8710938692,-0.1114829108
15.58705236,-1.698205352,-1.086881995,-0.2916881442
15.59705236,-1.907274008,-1.298699498,-0.5378668308
15.60705236,-2.037082911,-1.567022085,-0.8248208165
15.61705236,-2.142762661,-1.808619261,-1.030987859
15.62705236,-2.624277115,-2.030057907,-1.396285176
15.63705236,-2.997973919,-2.008066893,-1.676366925
15.64705236,-3.367394686,-1.931097746,-2.158797741
15.65705236,-3.600897789,-1.838246226,-2.790279627
15.66705236,-3.253010035,-1.803121448,-3.322954178
15.67705236,-2.417651892,-2.094046116,-3.800803661
15.68705236,-1.668425679,0.9143125415,-4.047134876
15.69705236,-0.8063421249,1.936595559,-3.607311964
15.70705236,-0.4340197444,2.17590189,-2.925586462
15.71705236,-0.6844745278,1.883602977,-2.22843647
15.72705236,-1.044732332,1.047175765,-2.008830309
15.73705236,-1.052520871,-0.4767803252,-1.554346561
15.74705236,-1.011287451,-0.8584184051,-1.206000686
15.75705236,-0.9735664725,-1.236544013,-0.5965099335
15.76705236,-0.7982481718,-1.768302202,-0.3054326177
15.77705236,-0.2183843255,-1.83290112,-0.759763658
15.78705236,0.4440990388,-1.104749799,-0.9657779336
15.79705236,0.4627304375,-1.443474531,-0.6342308521
15.80705236,0.5456553698,-1.731650233,-0.4650211632
15.81705236,0.6980662346,-1.85092175,-0.3316998184
15.82705236,0.8918632865,-1.829236031,-0.2988658249
15.83705236,1.242958069,-2.152841806,-0.2671008408
15.84705236,1.380860925,-2.410626888,-0.1527163088
15.85705236,1.403921008,-2.599078894,0.05253441259
15.86705236,1.319468975,-2.617404938,0.3126102984
15.87705236,1.17377758,-2.522567987,0.5893322229
15.88705236,0.8417723179,-2.337781191,1.086423874
15.89705236,0.7026477456,-2.281276226,1.244485259
15.90705236,0.5758932233,-2.137264729,1.31870532
15.91705236,0.4399756789,-2.058005095,1.33886385
15.92705236,0.2997821271,-2.159561396,1.261742115
15.93705236,0.2330450863,-2.262339354,0.6545420885
15.94705236,0.1345430762,-1.935068369,0.2463314086
15.95705236,-0.2058615834,-1.363909364,-0.196851328
15.96705236,-0.4696026444,-0.8468119502,-0.673478961
15.97705236,-0.3869831264,-0.3326161206,-1.028544307
15.98705236,-0.2431243658,-0.02351831272,-1.216385365
15.99705236,0.03955352306,-0.2971859276,-1.470963478
16.00705236,0.1892155111,-0.7403686643,-1.516320229
16.01705236,0.2956587672,-1.37597394,-1.430799127
16.02705236,0.2295326144,-2.063961029,-1.306182623
16.03705236,0.1194241568,-2.770579338,-1.220661521
16.04705236,0.1449277848,-3.752087116,-1.023352027
16.05705236,-0.3315471113,-3.617696762,-0.8069530129
16.06705236,-1.007622242,-2.838843584,-0.4463897645
16.07705236,-1.685529947,-2.231185198,0.03054326214
16.08705236,-1.781893969,-2.827237129,0.551153183
16.09705236,-0.3529273868,-4.806593418,1.081384182
16.10705236,0.3376557529,-4.760778427,1.046259403
16.11705236,0.7904596329,-4.17022419,0.9118691087
16.12705236,1.14491415,-3.483000994,0.6244570017
16.13705236,1.278388262,-3.124117613,0.279470861
16.14705236,1.377043009,-2.499813318,-0.007941247895
16.15705236,1.729970336,-1.983937621,0.0723875314
16.16705236,2.17376399,-1.801594377,0.1458440721
16.17705236,2.537381411,-1.600466967,0.1866193265
16.18705236,2.799748182,-1.328173757,0.2461786866
16.19705236,3.044552326,-1.020755768,0.5720753074
16.20705236,3.053562641,-0.9335548282,0.7874053121
16.21705236,2.939941645,-0.7481572032,0.9436340928
16.22705236,2.710867167,-0.5575672388,1.050077319
16.23705236,2.472477198,-0.4260784984,1.168432474
16.24705236,2.212401152,-0.2171625942,1.244485259
16.25705236,1.231351614,0.01007927675,1.188743711
16.26705236,0.5989533663,-0.2058615834,1.058018565
16.27705236,0.1195768714,-0.5093088746,0.8875871897
16.28705236,-0.09896016866,-0.7533495426,0.6730207801
16.29705236,-0.03940080851,-0.8310821652,0.44043383
16.30705236,0.4387539625,-0.1991420686,0.421038866
16.31705236,0.4416555762,-0.2315179259,0.5198463202
16.32705236,0.2251038402,-0.4190535545,0.5167919993
16.33705236,-0.04581489414,-0.5652030706,0.4566217661
16.34705236,-0.3394883573,-0.676838696,0.3258966208
16.35705236,-0.3394883573,-0.676838696,0.3258966208
16.36705236,-1.266170979,-1.409418821,-0.08781187981
16.37705236,-1.399339557,-1.802510619,-0.200821951
16.38705236,-1.521665335,-2.307238102,-0.2777909636
16.39705236,-1.678504944,-2.798984528,-0.3692680299
16.40705236,-1.973858356,-3.427106857,-0.6530149579
16.41705236,-2.130850792,-3.683975458,-0.8445212245
16.42705236,-2.377487421,-3.818213224,-1.020603061
16.43705236,-2.657721996,-3.683212042,-1.15728426
16.44705236,-2.900082827,-3.193450689,-1.304502726
16.45705236,-3.109151363,-1.307404399,-2.232712507
16.46705236,-2.426051378,-0.9332493544,-2.916728735
16.47705236,-1.936748266,-0.4503603876,-3.4497087
16.48705236,-1.5621351,0.9816604257,-3.821114779
16.49705236,-0.6227771044,2.231185198,-3.535229921
16.50705236,-0.5685628057,2.48423624,-2.859002113
16.51705236,-1.089783549,1.876578093,-2.65497303
16.52705236,-1.207985997,0.9124799371,-2.143526077
16.53705236,-1.16140759,0.169362396,-1.573894262
16.54705236,-1.064585447,-0.4637994468,-1.047633886
16.55705236,-0.9056077003,-0.9509644508,-0.6707300544
16.56705236,0.1623374373,-0.814283371,-0.625526011
16.57705236,0.4190535545,-0.6227771044,-1.043663263
16.58705236,0.6130032539,-0.6123924255,-0.9779952765
16.59705236,0.787252605,-0.6861543655,-0.6003278494
16.60705236,0.8839219809,-0.6455318332,-0.4207334518
16.61705236,1.115745425,-0.8633053303,-0.4809036553
16.62705236,1.26403296,-1.168279767,-0.4656320214
16.63705236,1.390023828,-1.3486377,-0.4071416855
16.64705236,1.458746195,-1.450346828,-0.2796235681
16.65705236,1.40743351,-1.579850197,-0.03237585723
16.66705236,1.106582403,-1.654070377,0.578183949
16.67705236,0.916908741,-1.578017592,0.8547531962
16.68705236,0.6750060916,-1.563662291,1.095739484
16.69705236,0.4126394689,-1.809077382,1.271974206
16.70705236,0.2200642079,-2.049605608,1.371087074
16.71705236,0.009926560335,-2.592664719,1.39659071
16.72705236,-0.04321871698,-2.903900623,1.260825872
16.73705236,-0.06047565863,-3.031571388,1.041525245
16.74705236,-0.06612616032,-2.985756636,0.7293730974
16.75705236,-0.06795875728,-2.841439724,0.3419318199
16.76705236,-0.5862779021,-1.075733662,-0.7391469479
16.77705236,-0.424856782,0.09544769675,-1.149495721
16.78705236,-0.01740965992,0.7695375085,-1.407738924
16.79705236,0.2790127099,0.9337075353,-1.672396302
16.80705236,0.4361577928,0.810923636,-1.764789701
16.81705236,0.3472768962,-0.8455902338,-1.885893703
16.82705236,0.3998112977,-2.06289196,-1.808161139
16.83705236,0.2434297949,-2.576782227,-1.638646007
16.84705236,-0.1594358236,-1.412320495,-1.29961586
16.85705236,-0.9398161769,-0.6348416805,-0.9108000994
16.86705236,-1.849699974,-1.371239781,-0.1757764816
16.87705236,-1.389412999,-3.057075024,1.65651381
16.88705236,-0.9634872079,-4.051869392,1.937359095
16.89705236,-0.5896376967,-3.993989706,1.952936172
16.90705236,-0.2813034356,-3.784157515,1.892460585
16.91705236,0.08063421398,-3.648545504,1.813200712
16.92705236,0.6001750827,-3.132975101,1.400103092
16.93705236,0.817643106,-2.598162651,1.115592599
16.94705236,1.008538485,-1.760819077,0.8475755453
16.95705236,1.254564524,-1.13666749,0.6539312601
16.96705236,1.528537512,-0.9428704977,0.5178610086
16.97705236,2.020742178,-0.8110763431,0.5006040931
16.98705236,2.171931267,-0.8246681094,0.5991060734
16.99705236,2.227825642,-0.8761335015,0.712268889
17.00705236,2.195907831,-0.8659014702,0.7892379165
17.01705236,2.08350873,-0.8058840036,0.8130616546
17.02705236,1.777159691,-0.8646797538,0.8364272118
17.03705236,1.626428723,-1.107651353,0.8084801435
17.04705236,1.529606581,-1.354899168,0.7719809413
17.05705236,1.539685845,-1.495703578,0.7577783465
17.06705236,1.637729764,-1.490511179,0.6782131195
17.07705236,1.786170006,-1.158658624,0.3672827184
17.08705236,1.81381166,-0.9906707406,0.2105957866
17.09705236,1.696525455,-0.7108944058,0.1379028261
17.10705236,1.255480766,-0.4670064747,0.1618792862
17.11705236,0.4312708676,-0.3159700334,0.2385428846
17.12705236,-0.4972442985,-0.3914119005,0.2751947939
17.13705236,-1.699732542,-1.027017236,0.1933388561
17.14705236,-1.896889329,-1.303891897,0.2067778856
17.15705236,-1.707826495,-1.415069342,0.2693915665
17.16705236,-1.383762479,-1.631162882,0.334754169
17.17705236,-1.209818602,-1.935679197,0.3084869385
17.18705236,-1.572367191,-2.143678904,-0.05467243865
17.19705236,-1.8519907,-2.070985794,-0.2209804952
17.20705236,-2.120618582,-2.101529121,-0.3294090927
17.21705236,-2.359772444,-2.249358654,-0.4628831446
17.22705236,-2.54929328,-2.559372663,-0.6436992288
17.23705236,-2.84632659,-3.167947054,-1.155451655
17.24705236,-3.014467239,-3.302643061,-1.503797531
17.25705236,-3.155882597,-3.423136234,-1.964542627
17.26705236,-3.1542027,-3.498425245,-2.503325701
17.27705236,-2.688723326,-4.000251293,-3.063489199
17.28705236,-1.958281279,-1.544420004,-3.830430508
17.29705236,-1.225701094,0.3113885522,-3.647171021
17.30705236,-0.2031126916,1.036791086,-3.084563971
17.31705236,0.3385720551,1.164309144,-2.439032316
17.32705236,0.1566869318,0.5279402733,-2.14184618
17.33705236,-0.7182248235,-0.2988658249,-1.80296874
17.34705236,-0.8231409192,-0.6725626588,-1.390940189
17.35705236,-0.7539604306,-1.134224057,-0.9185886383
17.36705236,-0.5042692423,-1.265407324,-0.6487388611
17.37705236,-0.07773260027,-0.9694431424,-0.5331326723
17.38705236,0.684169054,-0.4731151462,-0.5390886068
17.39705236,0.6969972253,-0.6302602291,-0.4605923891
17.40705236,0.6510296464,-0.7953465581,-0.4040873647
17.41705236,0.6882924438,-0.837954402,-0.3872885704
17.42705236,0.770911932,-0.9769262671,-0.3784310222
17.43705236,0.8432994485,-1.199281216,-0.3735440969
17.44705236,1.152855396,-1.318858027,-0.28313604
17.45705236,1.259451389,-1.302212,-0.1953241676
17.46705236,1.264185667,-1.278235555,-0.08781187981
17.47705236,1.263574719,-1.210276723,0.03344487399
17.48705236,1.223257661,-1.227533698,0.1884519309
17.49705236,1.10673511,-1.44301641,0.5561928153
17.50705236,1.005484223,-1.603215814,0.7104362845
17.51705236,0.8626944423,-1.783268332,0.8318457603
17.52705236,0.7325801253,-1.895362139,0.9034696817
17.53705236,0.6455318332,-1.911244631,0.9327912331
17.54705236,0.5697845817,-1.839468002,0.8796459436
17.55705236,0.5943718553,-1.727068782,0.7751879692
17.56705236,0.6638578176,-1.471421719,0.5994115472
17.57705236,0.7446447611,-1.118799686,0.3961461186
17.58705236,0.7965682745,-0.7127270103,0.216246292
17.59705236,0.8556694984,0.04550946131,-0.2058615834
17.60705236,0.9007207751,0.29138273,-0.436463207
17.61705236,0.9031642675,0.3904955983,-0.6337726712
17.62705236,0.8310821652,0.3477350473,-0.8060367107
17.63705236,0.6918048859,0.1594358236,-0.9422596693
17.64705236,0.07452555746,-0.5510004759,-0.9657779336
17.65705236,-0.5128213763,-1.05878222,-0.7660250068
17.66705236,-1.408655286,-0.8486445546,-0.4459316432
17.67705236,-2.129934311,0.1249219403,-0.1525636017
17.68705236,-2.077247381,0.802524209,-0.1893682331
17.69705236,-1.113301873,1.053284407,0.2669481039
17.70705236,-0.9332493544,0.4204280078,0.475558579
17.71705236,-0.692568481,-0.4813618064,0.6192646623
17.72705236,-0.4757113159,-1.329395533,0.7791585922
17.73705236,-0.2646573782,-1.972178459,1.051299095
17.74705236,0.0833831057,-2.46056509,1.381319046
17.75705236,0.9028588533,-2.727818727,1.670258284
17.76705236,1.241430879,-2.576629639,1.631468296
17.77705236,1.556331873,-2.311055899,1.461342335
17.78705236,1.861001015,-2.004707098,1.214705586
17.79705236,2.185523033,-1.712407947,0.868955791
17.80705236,2.468811989,-1.476613998,0.507170856
17.81705236,2.46514678,-1.484860659,0.4387539625
17.82705236,2.4729352,-1.524872422,0.3750712574
17.83705236,2.446515322,-1.244332552,0.3376557529
17.84705236,2.347707748,-0.8483390808,0.3605632186
17.85705236,2.256383419,-0.3636175394,0.3316998184
17.86705236,2.24492979,-0.4411974251,0.3544545472
17.87705236,2.198351383,-0.5499314666,0.4234823287
17.88705236,2.067320824,-0.5716171265,0.5334380865
17.89705236,1.852754235,-0.4876231849,0.6478226185
17.90705236,1.185078621,-0.4914411008,0.8784242272
17.91705236,0.8187121153,-0.5581781268,0.9166033268
17.92705236,0.5080871582,-0.5697845817,0.8535314798
17.93705236,0.2460259795,-0.5207626224,0.7542658448
17.94705236,0.02107485011,-0.4970915914,0.6777549982
17.95705236,-0.3217732608,-0.5969680548,0.563065052
17.96705236,-0.4056145251,-0.7782423496,0.5842925906
17.97705236,-0.460745126,-1.013272762,0.6160575747
17.98705236,-0.5216789246,-1.289383769,0.5548183322
17.99705236,-0.6296493411,-1.538616896,0.3949243724
18.00705236,-0.8306240439,-1.697899938,0.1857030392
18.01705236,-1.737606168,-1.761429906,-0.3123048544
18.02705236,-2.265851974,-1.74417305,-0.5201517344
18.03705236,-2.710714579,-1.829236031,-0.6614143252
18.04705236,-3.025462866,-1.905441403,-0.8028296232
18.05705236,-3.20215559,-1.817171335,-0.9462302923
18.06705236,-3.515376806,-1.385289669,-1.382846236
18.07705236,-3.65648675,-1.076039076,-1.738675237
18.08705236,-3.70138526,-0.6939429045,-2.184454203
18.09705236,-3.37075448,-0.5296201706,-2.637105227
18.10705236,-2.731178522,-0.5326744914,-3.003319025
18.11705236,-1.756237626,0.821613729,-2.765692472
18.12705236,-1.425301313,1.007164121,-2.403907537
18.13705236,-1.455844641,1.242499948,-2.221869707
18.14705236,-1.667051196,1.242805362,-2.050674677
18.15705236,-1.790751457,1.010218382,-1.687820673
18.16705236,-1.457219005,-0.03512475267,-1.105666041
18.17705236,-1.306640744,-0.2086104751,-0.9054549932
18.18705236,-1.152397275,-0.5068654418,-0.7596109509
18.19705236,-0.9902125597,-0.6162103415,-0.633467257
18.20705236,-0.7875580192,-0.3950771093,-0.5093088746
18.21705236,-0.2469422817,-0.4221078753,-0.5458080769
18.22705236,-0.06490442902,-0.9062185884,-0.4120286107
18.23705236,0.1212567538,-1.06962502,-0.2055561543
18.24705236,0.2664899528,-1.089630842,-0.06673702598
18.25705236,0.4178318381,-1.246928692,-0.1447750628
18.26705236,0.8794932365,-1.136820197,-0.2805398703
18.27705236,1.064738154,-1.230893493,-0.1910481006
18.28705236,1.149343014,-1.440267563,-0.08002334833
18.29705236,1.142165303,-1.667051196,0.12996158
18.30705236,1.090547204,-1.772120118,0.3883575797
18.31705236,1.011440158,-1.702175975,0.6647741199
18.32705236,0.8234463334,-1.311375022,1.218981624
18.33705236,0.6652322412,-1.202793717,1.44561255
18.34705236,0.5316054821,-1.104444385,1.578323126
18.35705236,0.4569272101,-1.006095052,1.581377387
18.36705236,0.4589125216,-0.9711230397,1.488831282
18.37705236,0.7137960196,-0.9477574229,1.110094905
18.38705236,0.8281805515,-0.7599163651,0.8324565887
18.39705236,0.8626944423,-0.3368921876,0.4477642179
18.40705236,0.8269588351,0.2002110779,-0.07055493444
18.41705236,0.648586154,0.7686212063,-0.5800165534
18.42705236,0.4379903674,1.367421865,-1.078177214
18.43705236,0.5250386596,1.252731919,-1.238834739
18.44705236,0.5650503635,1.061683774,-1.393841743
18.45705236,0.5216789246,0.8657487631,-1.536326051
18.46705236,0.5403103232,0.5045747161,-1.567632914
18.47705236,0.5836817622,-0.7585419416,-1.210734963
18.48705236,-0.1537853181,-0.429132849,-0.8536841869
18.49705236,-0.8680394888,0.4804455042,-0.283441484
18.50705236,-1.308167934,0.6678284407,0.2127338201
18.51705236,-1.449583173,0.04932736978,0.6771441102
18.52705236,-1.020908594,-1.519527316,1.250288486
18.53705236,-0.8723155856,-1.964848042,1.36360395
18.54705236,-0.8880453706,-2.208735943,1.544267297
18.55705236,-0.7805330753,-2.490345001,1.70859015
18.56705236,-0.5322163701,-2.732247591,1.819156647
18.57705236,0.4763221741,-2.448653221,1.778686881
18.58705236,1.038929105,-1.800067186,1.559080839
18.59705236,1.461036921,-0.8921687007,1.200655699
18.60705236,1.875356317,-0.06811147183,0.864985168
18.61705236,2.407572746,0.3216205537,0.6389650702
18.62705236,3.010649443,0.5187773108,0.5707008839
18.63705236,3.745214701,0.04856378585,0.8220719099
18.64705236,4.010635853,0.2658790946,0.8495608568
18.65705236,4.105319977,0.8170322776,0.9133962393
18.66705236,4.008650303,0.8988882303,0.9995282292
18.67705236,3.83134675,0.6075055003,1.025184631
18.68705236,3.631135702,0.04810563847,0.8991936445
18.69705236,3.254689932,0.2206750661,0.8713992834
18.70705236,2.229810953,0.1956295967,0.8987354636
18.71705236,1.077260852,-0.393397212,0.9036223888
18.72705236,0.2825251818,-0.936609149,0.8715519905
18.73705236,0.2825251818,-0.936609149,0.8715519905
18.74705236,-0.2128865421,-0.0850629881,0.8732318878
18.75705236,-0.1939497143,0.09361509979,0.9511171579
18.76705236,-0.287412107,-0.002748893574,0.9166033268
18.77705236,-0.4587597847,-0.06520986557,0.7822129726
18.78705236,-0.8008443117,-0.1340849251,0.3649919927
18.79705236,-0.9560040832,-0.3365867436,0.08704829961
18.80705236,-1.079704285,-0.609796226,-0.188910082
18.81705236,-1.172555804,-0.8936958313,-0.4709770977
18.82705236,-1.253190041,-1.047633886,-0.7220427394
18.83705236,-1.556026459,-0.8842274547,-0.9586002827
18.84705236,-1.796554685,-0.8962920308,-1.029155254
18.85705236,-2.094504118,-1.047481179,-1.10261178
18.86705236,-2.43368721,-1.253037333,-1.186147571
18.87705236,-2.752558708,-1.525635958,-1.321454287
18.88705236,-3.216052771,-1.72508347,-1.871080279
18.89705236,-3.235142231,-1.345125318,-2.326785803
18.90705236,-2.792876005,-1.406211853,-2.791806936
18.91705236,-2.359772444,-1.293507099,-3.24598527
18.92705236,-2.277763844,-0.04245513305,-3.612962484
18.93705236,-2.035708427,1.514029503,-3.7039814
18.94705236,-1.262353063,2.960711241,-2.603660345
18.95705236,-1.454775572,2.738050699,-1.972178459
18.96705236,-1.584126353,1.781435728,-1.50593555
18.97705236,-1.545489073,0.2864958048,-1.129337072
18.98705236,-1.61268425,-0.7406741381,-0.85765481
18.99705236,-1.526094079,-1.341307402,-0.2725986242
19.00705236,-1.256397128,-0.8481863737,-0.4352414906
19.01705236,-0.8843801618,0.03863722831,-0.6545420885
19.02705236,-0.598495245,0.3784310222,-0.8020660877
19.03705236,-0.3181080818,0.2328923792,-0.747240901
19.04705236,0.1327104717,-0.3278819323,-0.4080579877
19.05705236,0.2800817192,-0.7883216143,-0.4228714705
19.06705236,0.444404453,-0.8869763613,-0.4456261992
19.07705236,0.7194465399,-0.6620252132,-0.4425718784
19.08705236,1.08199501,-0.4631885588,-0.4237877727
19.09705236,1.480737329,-0.5186246037,-0.008399397135
19.10705236,1.426370382,-0.6976081133,0.306807071
19.11705236,1.340085626,-0.652556777,0.6209445
19.12705236,1.242194533,-0.4320344329,0.9019425511
19.13705236,1.097724795,-0.2325869352,1.131475091
19.14705236,0.6844745278,-0.2658790946,1.428661108
19.15705236,0.5225952268,-0.5009095073,1.496008992
19.16705236,0.468380928,-0.7171558142,1.475545049
19.17705236,0.5523748994,-0.9964739084,1.370018005
19.18705236,0.7683157325,-1.326646566,1.223868489
19.19705236,1.016021609,-1.31045866,1.000139117
19.20705236,0.778853178,0.2434297949,0.2031126916
19.21705236,0.1050688252,1.317941785,-0.3552181423
19.22705236,-0.04291328415,2.252107382,-0.8602510095
19.23705236,0.1278235465,2.785392761,-1.179886222
19.24705236,0.3518583775,2.950937271,-1.396743417
19.25705236,0.8237518072,2.554332972,-1.669494748
19.26705236,0.9185886383,1.950340033,-1.772883654
19.27705236,1.036638379,0.9228646755,-1.732261062
19.28705236,1.084896684,-0.1183551401,-1.565800309
19.29705236,0.2379320115,0.4593706727,-1.107193232
19.30705236,-1.406975389,1.527468562,0.3981314301
19.31705236,-1.655750275,0.3944662213,1.034653068
19.32705236,-1.734551907,-1.251815557,1.512960553
19.33705236,-1.653306842,-2.38833046,1.669189334
19.34705236,-1.521512628,-2.987589121,1.89887464
19.35705236,-1.1242975,-3.02317214,2.255772591
19.36705236,-0.6966918111,-2.820059299,2.287842989
19.37705236,-0.2463314086,-2.581363916,2.161393881
19.38705236,0.1588249654,-2.368019104,1.867567778
19.39705236,0.3769038618,-2.125352859,1.430188298
19.40705236,0.7480044961,-0.8432994485,0.6685920358
19.41705236,1.166905284,-0.7559457421,0.593913734
19.42705236,1.613295078,-0.8278751373,0.5036584139
19.43705236,2.008830309,-0.6210972667,0.5028948188
19.44705236,2.405434608,-0.2729040384,0.6126978397
19.45705236,2.984382153,0.2249511331,0.64980793
19.46705236,3.160616875,0.393702656,0.6369797587
19.47705236,3.337767601,0.5955936313,0.6389650702
19.48705236,3.534313679,0.6948592067,0.5853615999
19.49705236,3.677866936,0.5771149397,0.4502076805
19.50705236,3.727957964,0.259465009,0.3373503387
19.51705236,3.67863059,-0.2974913716,0.09392052889
19.52705236,3.679394007,-0.1582140923,-0.03711006418
19.53705236,3.197879553,0.6585127115,0.06688974798
19.54705236,1.90559411,0.9726501703,0.5018258095
19.55705236,0.2901609838,0.3878994286,0.8225300312
19.56705236,-1.736689925,-0.1924225539,0.8240572214
19.57705236,-1.712407947,-0.06872233748,0.6684392691
19.58705236,-1.272126913,0.08765916526,0.5317581892
19.59705236,-0.8037459254,0.1461495161,0.4433354437
19.60705236,-0.4531092942,0.4153883755,0.353843689
19.61705236,-0.3758348525,0.8487972617,-0.06627888232
19.62705236,-0.5948300362,0.8558222055,-0.4321871698
19.63705236,-1.008843899,0.8629998565,-0.7878634334
19.64705236,-1.492649198,0.7365507483,-1.051451802
19.65705236,-1.863597155,0.5137376785,-1.188743711
19.66705236,-2.3414464,-0.255494386,-1.375057697
19.67705236,-2.553569555,-0.6357579827,-1.548848867
19.68705236,-2.700788021,-0.8933904171,-1.793042183
19.69705236,-2.76996851,-0.9798278809,-2.049758434
19.70705236,-2.813645363,-0.9300423265,-2.264172077
19.71705236,-2.484541655,-1.072984815,-2.796540976
19.72705236,-2.101834536,-1.185536742,-3.171459675
19.73705236,-1.990046263,-0.6371324658,-3.455512047
19.74705236,-2.14642787,0.4053090811,-3.629150391
19.75705236,-2.008066893,1.57038188,-3.628081322
19.76705236,-1.060309291,2.562274218,-2.418110132
19.77705236,-1.052978992,2.486221552,-1.76173532
19.78705236,-1.184009552,2.0438025,-1.158505917
19.79705236,-1.341460109,0.9695958495,-0.7793113589
19.80705236,-1.445459843,0.1507309973,-0.5467243791
19.81705236,-1.468061924,-0.1218676195,-0.2991712391
19.82705236,-1.018923283,-0.0726929605,0.1252273768
19.83705236,-0.6421720982,0.1595885456,-0.1036943719
19.84705236,-0.5198463202,0.6272059083,-0.4017966092
19.85705236,-0.3425426781,1.13972187,-0.5067127347
19.86705236,0.07941248268,1.618640184,-0.6647741199
19.87705236,0.25167647,1.258993268,-0.468075484
19.88705236,0.1892155111,0.5806274414,-0.3080287874
19.89705236,0.3258966208,-0.02474004216,-0.2968805134
19.90705236,0.5600107312,-0.3231477141,-0.1901318133
19.91705236,0.7370089293,-0.4389066696,0.04703662544
19.92705236,0.9344711304,-0.7257078886,0.6273586154
19.93705236,0.9546296597,-0.7527387142,0.9092729092
19.94705236,0.9283624291,-0.58276546,1.161713004
19.95705236,0.9387471676,-0.1646281779,1.366505504
19.96705236,0.935998261,0.3295617998,1.553583026
19.97705236,0.6588181853,0.8828529716,1.82312727
19.98705236,0.4824308157,0.8474228382,1.880548716
19.99705236,0.3993531466,0.6901249886,1.791973233
20.00705236,0.4677700698,0.4812090993,1.573436141
20.01705236,0.6307183504,0.1620320082,1.334587812
20.02705236,0.9807441235,0.005650503561,0.8290968537
20.03705236,0.9016370773,0.7060074806,0.3872885704
20.04705236,0.6075055003,1.532050014,-0.1583668143
20.05705236,0.3045163155,2.2681427,-0.6152940392
20.06705236,0.1812742651,2.63069129,-0.8035932183
20.07705236,0.2402227521,2.510656118,-0.9117164016
20.08705236,0.3533855379,1.934610248,-0.9370672703
20.09705236,0.4372268021,1.563967705,-0.9294314981
20.10705236,0.597884357,1.010523796,-0.9497427344
20.11705236,0.8164213896,0.2208277881,-0.9298896194
20.12705236,0.8794932365,-0.5021312237,-0.8765916228
20.13705236,-0.5555819273,1.537089705,-0.5054910183
20.14705236,-0.7614435554,1.98867178,0.1125519201
20.15705236,-0.5603161454,1.491732955,0.8017606139
20.16705236,-0.4428772926,0.4158465266,1.199892044
20.17705236,-0.5164865851,-0.248011291,1.378417373
20.18705236,-0.5794056654,0.02565634064,1.86588788
20.19705236,-0.6815729141,-0.04276056588,2.05724144
20.20705236,-0.770911932,-0.409432441,2.09694767
20.21705236,-0.7147123218,-0.7257078886,2.004859686
20.22705236,-0.4685336351,-0.9097310901,1.842369556
20.23705236,0.1637118906,-1.153313637,1.510364294
20.24705236,0.3231477141,-1.141401768,1.436907768
20.25705236,0.4457789063,-0.6748533845,1.335351467
20.26705236,0.7932085395,-0.1160643995,1.200961113
20.27705236,1.311527729,0.2075414658,1.127351761
20.28705236,2.082592249,0.8750644922,1.03816545
20.29705236,2.300976753,1.331533551,0.925460875
20.30705236,2.442697287,1.73592627,0.8321511745
20.31705236,2.583654642,1.981494188,0.7819074988
20.32705236,2.82097578,2.277611017,0.6914994717
20.33705236,3.45383215,2.781116724,0.5125159621
20.34705236,3.632663012,2.593122959,0.5050328374
20.35705236,3.687029839,1.896583915,0.6330091357
20.36705236,3.748574495,1.305419087,0.5833762884
20.37705236,3.777437925,1.017396092,0.3938553631
20.38705236,3.699858189,1.374294043,0.2347249687
20.39705236,1.381929874,1.928959727,0.3442225754
20.40705236,-0.1027780771,0.9372199774,0.2767219543
20.41705236,-0.9786061049,0.5184718966,0.1918116808
20.42705236,-1.136362076,0.7831292152,0.1250746548
20.43705236,-0.8014551997,1.042899728,0.1307251602
20.44705236,-0.1014036313,1.122312188,0.02504547499
20.45705236,-0.02000583708,0.9841039181,-0.05513058975
20.46705236,-0.1893682331,0.8541423082,-0.1824959964
20.47705236,-0.5552765131,0.8402451277,-0.4005748928
20.48705236,-0.9860892296,0.8206974864,-0.5916230083
20.49705236,-1.826334357,0.4977024496,-0.8359690905
20.50705236,-2.182621479,0.1615738571,-1.080162525
20.51705236,-2.486068726,-0.1689042449,-1.336573124
20.52705236,-2.738203526,-0.3715587854,-1.539838552
20.53705236,-2.929404259,-0.4129449129,-1.76066637
20.54705236,-3.20475173,0.02962696366,-2.323120594
20.55705236,-3.260645866,0.4100432992,-2.71529603
20.56705236,-2.965750694,-0.07666359097,-3.013856411
20.57705236,-2.618626595,-0.4118759036,-3.325092316
20.58705236,-2.458427191,0.5369505286,-3.63892436
20.59705236,-1.687515259,2.030057907,-3.41000247
20.60705236,-1.635591745,2.141693592,-2.867554188
20.61705236,-1.85351789,2.470033646,-2.167044401
20.62705236,-1.931555867,2.446515322,-1.620167375
20.63705236,-1.894445896,1.879785061,-1.291216373
20.64705236,-2.036472082,0.6449210048,-0.6273586154
20.65705236,-1.944994926,0.5952881575,-0.3457497358
20.66705236,-1.787849903,0.9448558092,-0.2611449063
20.67705236,-1.611462474,1.431868076,-0.4114177525
20.68705236,-1.188132882,1.911855459,-0.3594942093
20.69705236,-0.72356987,1.864207983,-0.319024384
20.70705236,-0.3503312171,1.194546938,-0.2012801021
20.71705236,-0.1959350258,1.003651619,-0.1951714456
20.72705236,-0.08567385375,0.8092437387,-0.04505131021
20.73705236,0.002290744567,0.516333878,0.0960585624
20.74705236,0.1256855279,0.2449569702,0.2116648108
20.75705236,0.4141666293,-0.06536258012,0.5916230083
20.76705236,0.4865541756,-0.2819143236,0.8637634516
20.77705236,0.4796819389,-0.3046690524,1.206611633
20.78705236,0.4630358517,-0.1030835137,1.517847419
20.79705236,0.4865541756,0.2328923792,1.760055542
20.80705236,0.4021020532,0.5639813542,2.02578187
20.81705236,0.3469714522,0.5439754725,1.987908244
20.82705236,0.3955352604,0.4743368626,1.81900394
20.83705236,0.5904012322,0.381179899,1.54457283
20.84705236,0.8210029006,0.3804163337,1.264643788
20.85705236,0.9947940707,0.9502009153,0.5728389025
20.86705236,0.8474228382,1.268461704,0.09743300825
20.87705236,0.5473352671,1.736537218,-0.4512766898
20.88705236,0.2249511331,2.334879637,-0.8578075171
20.89705236,0.1933388561,2.637868881,-0.9695958495
20.90705236,0.4231768847,2.508365393,-0.9999864101
20.91705236,0.4231768847,2.508365393,-0.9999864101
20.92705236,0.5687155724,2.333352566,-1.026864529
20.93705236,1.199128509,1.155146122,-1.042747021
20.94705236,1.82618165,-0.06490442902,-1.088256478
20.95705236,1.51158607,-0.2735149264,-1.232878804
20.96705236,-1.09131074,2.376571178,-0.3987422884
20.97705236,-1.365741968,2.268753529,0.5644394755
20.98705236,-1.317941785,1.751350641,1.351386666
20.99705236,-1.487915039,0.7919867635,1.558928132
21.00705236,-1.599856019,-0.1915062517,1.606422901
21.01705236,-1.558317184,-0.8290968537,1.925141811
21.02705236,-1.610698938,-0.9822713137,2.040442705
21.03705236,-1.625817895,-1.169196129,2.112677336
21.04705236,-1.491580248,-1.310305953,2.150703907
21.05705236,-1.13972187,-1.265712738,2.099085808
21.06705236,-0.3639229834,-0.488081336,1.623374343
21.07705236,-0.07895433158,-0.05910121277,1.54716897
21.08705236,0.3807217777,-0.2073887438,1.585806131
21.09705236,1.069777727,-0.684169054,1.613753319
21.10705236,1.733635545,-0.8718574047,1.631162882
21.11705236,2.790279627,-0.1522581577,1.547779799
21.12705236,3.27332139,0.239917323,1.420872569
21.13705236,3.636480808,0.5952881575,1.297630548
21.14705236,3.895487785,1.056796908,1.252121091
21.15705236,4.233448982,1.692554832,1.179122686
21.16705236,4.233448982,1.692554832,1.179122686
21.17705236,4.968472481,0.5820018649,0.8326093554
21.18705236,4.954117298,-0.1432479024,0.4893030524
21.19705236,4.52025032,0.2148718536,0.2576324046
21.20705236,2.794861317,0.818253994,0.31871894
21.21705236,-1.082453251,-0.7559457421,0.5232060552
21.22705236,-2.142151594,-0.9700540304,0.5374087095
21.23705236,-2.533563614,-1.003346205,0.4584543705
21.24705236,-2.041969776,-0.6042984724,0.2229658216
21.25705236,-1.269072533,-0.1012509167,0.1718058437
21.26705236,-0.731511116,0.1449277848,0.1588249654
21.27705236,-0.4592179358,0.3750712574,-0.09926560521
21.28705236,-0.6960809231,0.4729624093,-0.310777694
21.29705236,-1.027169943,0.7583891749,-0.4966334403
21.30705236,-1.48684597,0.9046914577,-0.6049093008
21.31705236,-2.010052204,0.8014551997,-0.7290676832
21.32705236,-2.930778742,0.2104430795,-0.9931141734
21.33705236,-3.289509296,-0.1094975919,-1.056491494
21.34705236,-3.561649799,-0.3827070892,-1.18202424
21.35705236,-3.735135555,-0.4738787115,-1.461800575
21.36705236,-3.852268934,-0.4608978331,-1.828930497
21.37705236,-4.047287464,0.1537853181,-2.720182896
21.38705236,-3.597843647,-0.1165225431,-3.254689932
21.39705236,-2.944217682,-0.6476698518,-3.887393713
21.40705236,-2.58945775,-0.2011273801,-4.106541634
21.41705236,-2.35274744,0.6331618428,-3.749643564
21.42705236,-1.833512068,1.379791856,-2.943301439
21.43705236,-1.591914773,1.653764963,-2.366033792
21.44705236,-1.348332286,1.75761199,-1.79212594
21.45705236,-1.380555511,1.257924199,-1.29656148
21.46705236,-1.672701716,0.1398881376,-1.025031924
21.47705236,-1.672701716,0.1398881376,-1.025031924
21.48705236,-1.497383475,-0.8011497855,-0.08659014851
21.49705236,-0.889877975,-0.8837692738,0.09498954564
21.50705236,-0.3475823104,-0.751822412,-0.2825251818
21.51705236,-0.1970040351,-0.2765692472,-0.567035675
21.52705236,0.02901609987,-0.6163630486,-0.3043636084
21.53705236,0.1435533315,-0.9821186066,-0.228463605
21.54705236,0.3042109013,-1.299157619,-0.2290744632
21.55705236,0.5784893632,-1.339016676,-0.2469422817
21.56705236,0.8875871897,-1.197143197,-0.1832595766
21.57705236,1.133307695,-1.211498499,-0.02748893574
21.58705236,1.313513041,-1.604590297,0.4975497425
21.59705236,1.278235555,-1.728137732,0.7996225953
21.60705236,1.256091714,-1.702786922,1.076955438
21.61705236,1.223104954,-1.584431767,1.340085626
21.62705236,1.129642606,-1.448208809,1.568091035
21.63705236,0.7719809413,-1.072068453,1.73180294
21.64705236,0.593913734,-0.8455902338,1.683391929
21.65705236,0.4321871698,-0.7753407359,1.515556693
21.66705236,0.2364048511,-0.845895648,1.249372125
21.67705236,-0.04550946131,-0.9086620808,0.9576839805
21.68705236,-0.7701483369,-0.4902193546,0.113926366
21.69705236,-0.8077165484,-0.1101084575,-0.4100432992
21.70705236,-0.5586362481,0.224187538,-0.7322747111
21.71705236,-0.3135266006,0.2553416789,-0.9876163602
21.72705236,-0.1562287807,0.0009162978968,-1.228602767
21.73705236,-0.03985895589,-0.8903360963,-1.443474531
21.74705236,-0.0594066456,-1.361160517,-1.474017859
21.75705236,-0.1689042449,-1.677894115,-1.409724236
21.76705236,-0.4341724813,-1.322370529,-1.280373573
21.77705236,-0.8217664957,-0.3271183372,-1.097266674
21.78705236,-2.394897223,-0.1687515229,-0.7470881939
21.79705236,-2.785698175,-0.4381431043,-0.275347501
21.80705236,-2.113135576,-0.9384417534,0.4349360466
21.81705236,-1.034347534,-1.875050902,1.026253581
21.82705236,-0.31047225,-2.260201454,1.403921008
21.83705236,-0.009773843922,-2.342210054,1.756848454
21.84705236,0.3914119005,-2.974150181,1.977523565
21.85705236,0.8713992834,-3.090672731,1.838093519
21.86705236,1.389412999,-2.98041153,1.563051462
21.87705236,1.687515259,-2.759278297,1.186605692
21.88705236,1.718516707,-2.127643585,0.767552197
21.89705236,1.615891337,-0.7542658448,0.09865473956
21.90705236,1.804343224,-0.2548835278,-0.03451388702
21.91705236,2.146733284,0.0001527163113,-0.009315694682
21.92705236,2.507754564,-0.1229366288,0.1212567538
21.93705236,2.7684412,-0.3681990206,0.2183843255
21.94705236,3.030655146,-0.7600690722,0.4379903674
21.95705236,3.053257227,-0.7994698882,0.5170974135
21.96705236,3.026684523,-0.8358163834,0.6110179424
21.97705236,2.930778742,-0.9358455539,0.7644978762
21.98705236,2.723695517,-1.076344609,0.9092729092
21.99705236,1.925447226,-1.054047942,1.030529618
22.00705236,1.378264666,-0.9717338681,1.016021609
22.01705236,0.9253081083,-0.9860892296,0.9385944605
22.02705236,0.5897904038,-1.083827615,0.8481863737
22.03705236,0.3665191531,-1.204931736,0.8211556077
22.04705236,0.2110539377,-1.024420977,0.8822421432
22.05705236,0.1353066564,-0.716239512,0.8961393237
22.06705236,-0.07101308554,-0.5997169614,0.8959866166
22.07705236,-0.3724750876,-0.7648032904,0.8979719281
22.08705236,-0.7205155492,-1.056796908,0.8933904171
22.09705236,-1.246470571,-1.815186024,0.6155994534
22.10705236,-1.450652242,-2.138639212,0.4273002446
22.11705236,-1.642005801,-2.396882534,0.1956295967
22.12705236,-1.832290292,-2.517986536,-0.03909537569
22.13705236,-2.03357029,-2.546086311,-0.2452623993
22.14705236,-2.255008936,-2.619695663,-0.4650211632
22.15705236,-2.655583858,-2.731178522,-0.8286387324
22.16705236,-2.842814207,-2.800664425,-1.035111189
22.17705236,-3.048370361,-2.878549814,-1.323286891
22.18705236,-3.222314119,-2.952922583,-1.764026165
22.19705236,-3.348763227,-2.983007669,-2.343889952
22.20705236,-3.208569765,-2.716212273,-3.254689932
22.21705236,-2.743548632,-2.256230831,-3.499494314
22.22705236,-1.939497113,-1.359175205,-3.785531998
22.23705236,-1.256244421,0.4117231667,-3.650225163
22.24705236,-0.7693848014,1.614669561,-3.186731339
22.25705236,-0.3549126983,2.16551733,-2.3909266
22.26705236,-0.5962044597,1.33519876,-2.200947523
22.27705236,-0.7493789196,0.5261076689,-2.042580605
22.28705236,-0.7385360599,-0.4628831446,-1.857488513
22.29705236,-0.6285803318,-1.076191902,-1.61680758
22.30705236,-0.4946481287,-2.050674677,-0.7359399199
22.31705236,-0.4254676402,-2.416735649,-0.4499022663
22.32705236,-0.037415497,-2.312124968,-0.6233879924
22.33705236,0.3816380501,-2.250580311,-0.9375254512
22.34705236,0.5141957998,-2.593733788,-0.9311113358
22.35705236,0.53481251,-3.444211006,-0.4937318265
22.36705236,0.5836817622,-3.647476435,-0.4216497242
22.37705236,0.6595817208,-3.845396757,-0.4106541574
22.38705236,0.7515169382,-3.951229095,-0.3930917978
22.39705236,0.8570439219,-4.043316841,-0.3425426781
22.40705236,1.121395826,-4.295299053,-0.1501201391
22.41705236,1.145219564,-4.443128586,0.02474004216
22.42705236,1.110247612,-4.488790512,0.2272418737
22.43705236,1.110247612,-4.488790512,0.2272418737
22.44705236,1.053742528,-4.369060993,0.4025602043
22.45705236,0.810923636,-4.03033638,0.747851789
22.46705236,0.5340489149,-3.968180656,0.8915578127
22.47705236,0.4480696619,-3.968791485,0.8587238193
22.48705236,0.3906483352,-3.994600534,0.7402159572
22.49705236,0.342084527,-4.060421467,0.5922338367
22.50705236,0.2538145185,-4.082870483,0.4751004577
22.51705236,-0.08628471941,-3.642436743,0.1655444801
22.52705236,-0.6945537925,-3.055853367,-0.2503020465
22.53705236,-1.092532516,-2.497828007,-0.660498023
22.54705236,-1.110247612,-2.24752593,-0.9082038999
22.55705236,-0.9488264322,-2.305863619,-1.119868755
22.56705236,-0.7422012687,-2.942079782,-1.630246639
22.57705236,-0.7325801253,-3.150537491,-1.798692703
22.58705236,-0.8014551997,-3.368310928,-1.826639771
22.59705236,-1.0283916,-3.606701136,-1.700496078
22.60705236,-1.298394084,-4.056450844,-1.391245604
22.61705236,-2.152536392,-2.815630674,-0.9387471676
22.62705236,-1.944842219,-2.601980448,-0.8060367107
22.63705236,-1.299004912,-2.596788168,-0.672868073
22.64705236,-0.2483167201,-2.667953968,-0.5468770862
22.65705236,0.8825475574,-2.669633865,-0.429132849
22.66705236,2.090838909,-2.198198557,0.1169806942
22.67705236,2.32388401,-1.817171335,0.389732033
22.68705236,2.141693592,-0.9813550115,0.5262604356
22.69705236,1.785559058,-0.6473644376,0.3956879675
22.70705236,1.596343637,-1.099251986,0.129808858
22.71705236,1.516472936,-1.661095262,0.01588249579
22.72705236,1.725694299,-2.496453524,0.109955743
22.73705236,1.93964982,-2.859918356,0.1832595766
22.74705236,2.094809532,-3.123353958,0.263435632
22.75705236,2.18873024,-3.066543579,0.3489567637
22.76705236,2.238973856,-2.822502851,0.4381431043
22.77705236,2.130697966,-2.449416876,0.6087272167
22.78705236,1.950645447,-2.261423111,0.6320928335
22.79705236,1.707979202,-2.193006277,0.6230825782
22.80705236,1.446376204,-2.41307044,0.6333145499
22.81705236,1.146288633,-2.701093435,0.6676757336
22.82705236,0.3029891551,-2.499813318,0.5238169432
22.83705236,-0.1273654103,-2.108248711,0.4265366495
22.84705236,-0.424551338,-1.765400529,0.3555235863
22.85705236,-0.6279694438,-1.464549422,0.2977968156
22.86705236,-0.7812966704,-1.252426505,0.2515237629
22.87705236,-1.014494419,-1.155604362,0.2157881409
22.88705236,-1.191492677,-1.254259109,0.2131919712
22.89705236,-1.467298269,-1.289231062,0.1719585657
22.90705236,-1.794569373,-1.240667343,0.09101892263
22.91705236,-2.083355904,-1.22020328,-0.009773843922
22.92705236,-2.383290768,-1.092074394,-0.2429716438
22.93705236,-2.46056509,-1.215011001,-0.3558290005
22.94705236,-2.521498919,-1.600161552,-0.4431827366
22.95705236,-2.571284533,-2.22797823,-0.5172501206
22.96705236,-2.544406414,-3.00927496,-0.6204863787
22.97705236,-2.275778532,-4.240473747,-0.9057604671
22.98705236,-2.308459759,-4.63692522,-1.110553026
22.99705236,-2.430327415,-4.853935242,-1.337336779
23.00705236,-2.584876299,-4.875010014,-1.597259879
23.01705236,-2.71010375,-4.67098093,-1.936595559
23.02705236,-2.644282818,-3.984673977,-2.437199593
23.03705236,-1.288314819,-1.698663473,-3.20734787
23.04705236,-0.5203045011,-0.2840523422,-3.144886971
23.05705236,-0.1580613852,0.6218608022,-3.077233791
23.06705236,-0.1762346178,0.7125743032,-3.118161678
23.07705236,-0.5276348591,-0.06230825558,-3.142443419
23.08705236,-0.9175195694,-0.8759807348,-2.656652927
23.09705236,-0.708450973,-0.8759807348,-2.246762276
23.10705236,-0.468380928,-0.9266825914,-1.909259319
23.11705236,-0.271376878,-1.289994717,-1.662469745
23.12705236,-0.04276056588,-1.639715075,-1.388954878
23.13705236,0.4332561791,-1.460884213,-0.88086766
23.14705236,0.4899139404,-1.364672899,-0.8402451277
23.15705236,0.5357288122,-1.40071404,-0.8856018782
23.16705236,0.5711590052,-1.610240817,-0.8269588351
23.17705236,0.6365215778,-1.741729498,-0.6849326491
23.18705236,0.9897544384,-1.691944003,-0.5400048494
23.19705236,1.213636518,-1.848783612,-0.5424483418
23.20705236,1.464396715,-1.992184281,-0.4961752892
23.21705236,1.689195156,-1.99737668,-0.4123340547
23.22705236,1.772425532,-2.073429346,-0.2492330223
23.23705236,1.553277612,-2.328312874,0.1379028261
23.24705236,1.413389444,-2.329687357,0.3249803185
23.25705236,1.303891897,-2.183690548,0.5395467281
23.26705236,1.221272349,-1.907732129,0.786641717
23.27705236,1.130253434,-1.654681206,0.96028018
23.28705236,1.031751394,-1.51983273,0.9880745411
23.29705236,0.9350819588,-1.444696307,0.7418958545
23.30705236,0.9088147879,-1.53327179,0.5328271985
23.31705236,0.8752171993,-1.734399199,0.271682322
23.32705236,0.7817547917,-1.846645594,-0.02901609987
23.33705236,0.5946773291,-1.706299305,-0.3087923825
23.34705236,0.3295617998,-0.9644035101,-0.8341364861
23.35705236,0.3654501438,-0.5426010489,-0.9808968902
23.36705236,0.4592179358,-0.1314887404,-1.097266674
23.37705236,0.5317581892,0.07941248268,-1.165836334
23.38705236,0.499535054,-0.01634064503,-1.210276723
23.39705236,0.2235766798,-0.5016731024,-1.361313224
23.40705236,0.09071348608,-0.5914703012,-1.340849161
23.41705236,-0.1160643995,-0.8730791807,-1.161254883
23.42705236,-0.2765692472,-1.342223644,-0.9120218158
23.43705236,-0.7852672935,-1.274264932,-0.4627304375
23.44705236,-1.832290292,-0.7681630254,0.7893906236
23.45705236,-1.48424983,-1.144456029,1.236085773
23.46705236,-0.681420207,-2.141999006,1.224479437
23.47705236,-0.14156802,-2.568382978,1.141859889
23.48705236,0.06994406879,-2.137722969,1.298852205
23.49705236,0.3602577746,-1.600161552,1.566105723
23.50705236,0.5535966158,-1.787238955,1.387885809
23.51705236,0.7487680912,-2.019520521,1.022435665
23.52705236,0.8640688658,-1.920407653,0.6198754907
23.53705236,0.89323771,-1.456608176,0.381790787
23.54705236,1.185231328,-0.6601926088,0.173180297
23.55705236,1.484707952,-0.4283692539,0.09941831976
23.56705236,1.894598603,-0.3019201458,0.003054326167
23.57705236,2.257757902,-0.1695151031,0.07147123665
23.58705236,2.583960056,-0.0001527163113,0.2451096773
23.59705236,2.583960056,-0.0001527163113,0.2451096773
23.60705236,2.856711388,0.1154535338,0.7189884186
23.61705236,2.856711388,0.1154535338,0.7189884186
23.62705236,2.601980448,-0.2680171132,0.8150469661
23.63705236,2.521957159,-0.3643811047,0.7999280095
23.64705236,2.466063023,-0.3109304011,0.7820602059
23.65705236,2.023338318,0.2104430795,0.7124215961
23.66705236,1.47859931,0.157145083,0.6055201888
23.67705236,0.866206944,-0.09407325089,0.4831944108
23.68705236,0.4176791012,-0.07131851465,0.3510948122
23.69705236,0.1934915632,0.3373503387,0.2583959997
23.70705236,-0.05207626149,0.7825183868,0.176998198
23.71705236,-0.2098322064,0.7157813311,0.1951714456
23.72705236,-0.3379611969,0.5316054821,0.2151772827
23.73705236,-0.4618141353,0.4040873647,0.1817324162
23.74705236,-0.5574145317,0.3912591934,0.1073595658
23.75705236,-0.7660250068,0.2506074607,-0.1603521258
23.76705236,-0.8944594264,-0.0354301855,-0.3375030458
23.77705236,-1.062752843,-0.3735440969,-0.4928155243
23.78705236,-1.326646566,-0.617584765,-0.5888741016
23.79705236,-1.649488926,-0.7371616364,-0.6598871946
23.80705236,-2.299754858,-1.014341712,-0.868955791
23.81705236,-2.592664719,-1.297783256,-0.9334021211
23.82705236,-2.803413391,-1.6740762,-0.9509644508
23.83705236,-2.896417618,-2.040289879,-0.9821186066
23.84705236,-2.926502705,-2.218815327,-1.089172721
23.85705236,-3.07784462,-1.669800162,-1.807550311
23.86705236,-2.770884752,-1.255938888,-2.416124821
23.87705236,-2.282039881,-0.6320928335,-2.954449654
23.88705236,-2.033112288,0.5138903856,-3.273474216
23.89705236,-1.777312398,1.831679463,-3.222924948
23.90705236,-1.373683214,2.676200628,-2.818685055
23.91705236,-1.143081546,2.184912205,-1.981799603
23.92705236,-1.26769805,1.809382915,-1.707673788
23.93705236,-1.207527876,0.8196284175,-1.271210551
23.94705236,-1.196684957,-0.279470861,-0.9425650835
23.95705236,-1.255022645,-0.7672467232,-0.6508769393
23.96705236,-1.198823094,-0.7058547735,-0.1036943719
23.97705236,-0.8063421249,-0.2167044431,0.01175915636
23.98705236,-0.3524692357,0.2687807083,-0.1829541475
23.99705236,0.01267545391,0.6530149579,-0.4208861589
24.00705236,0.3732386529,0.9166033268,-0.5739079118
24.01705236,0.8151996732,0.9196576476,-0.4805982411
24.02705236,0.896597445,0.7756461501,-0.4216497242
24.03705236,1.058629513,0.5542075038,-0.40485093
24.04705236,1.302364707,0.2806925774,-0.3310889602
24.05705236,1.502270341,0.08949175477,-0.1687515229
24.06705236,1.439198494,-0.2887865305,0.4824308157
24.07705236,1.291827321,-0.4848742783,0.822224617
24.08705236,1.13101697,-0.4795292318,1.087340117
24.09705236,0.9734137654,-0.3142901659,1.281442523
24.10705236,0.8129089475,-0.1049161032,1.425759435
24.11705236,0.4905247986,-0.1487456858,1.632384658
24.12705236,0.3590360582,-0.3549126983,1.619251013
24.13705236,0.3029891551,-0.5206099153,1.531744599
24.14705236,0.302531004,-0.7148650289,1.409876943
24.15705236,0.3246748745,-0.9502009153,1.23516953
24.16705236,0.4361577928,-0.7339546084,0.6977608204
24.17705236,0.4824308157,0.06780604273,0.3688098788
24.18705236,0.4886921942,0.9570731521,0.0853684172
24.19705236,0.4178318381,1.698205352,-0.1656972021
24.20705236,0.3506366611,2.335948706,-0.3562871516
24.21705236,0.3535382748,2.729193211,-0.5091561675
24.22705236,0.5346598029,2.882062197,-0.7539604306
24.23705236,0.6464481354,2.762332678,-0.8257371187
24.24705236,0.751822412,2.332283497,-0.8782715201
24.25705236,0.751822412,2.332283497,-0.8782715201
24.26705236,1.263116598,0.2390010208,-0.8512406945
24.27705236,1.263116598,0.2390010208,-0.8512406945
24.28705236,1.263116598,0.2390010208,-0.8512406945
24.29705236,-0.7533495426,1.019686818,0.2209804952
24.30705236,-0.7018841505,0.03848451003,0.638048768
24.31705236,-0.8468119502,-0.83856529,0.8776606321
24.32705236,-0.6889032722,-1.660789847,1.52242887
24.33705236,-0.6360634565,-1.98760283,1.777006984
24.34705236,-0.5832235813,-2.216830015,1.877036214
24.35705236,-0.4273002446,-2.09954381,1.826028943
24.36705236,-0.1345430762,-1.706757545,1.661706209
24.37705236,0.4705189466,-0.3573561609,1.186911225
24.38705236,0.8249735236,0.2200642079,1.00258255
24.39705236,1.341001987,0.4178318381,0.8697193861
24.40705236,2.045176744,0.2338086665,0.7368562222
24.41705236,2.643366575,0.3142901659,0.7069237828
24.42705236,3.365256548,0.8973610401,0.9054549932
24.43705236,3.621361971,1.41308403,1.012661815
24.44705236,3.695123911,1.632537365,1.156673312
24.45705236,3.647781849,1.48424983,1.28159523
24.46705236,3.592651129,0.9049968719,1.301753879
24.47705236,3.521790743,-0.2690861523,1.088103771
24.48705236,3.479793787,-0.03344487399,0.9465357065
24.49705236,3.187036753,0.5783366561,0.8173376918
24.50705236,2.353511095,1.014494419,0.7490735054
24.51705236,1.105513334,0.7223481536,0.7386888266
24.52705236,-0.06765332818,0.09407325089,0.7043276429
24.53705236,-1.060462117,0.04657847434,0.6740897894
24.54705236,-0.8090910316,0.1950187236,0.7208209634
24.55705236,-0.5859724879,0.1200350225,0.7565566301
24.56705236,-0.468380928,0.02367102914,0.6655376554
24.57705236,-0.4201225638,-0.1304197311,0.4864014387
24.58705236,-0.4964807332,-0.2631302178,-0.05619960278
24.59705236,-0.6889032722,-0.4205807149,-0.3472768962
24.60705236,-0.9581421614,-0.5103778839,-0.609796226
24.61705236,-1.288009405,-0.4531092942,-0.767552197
24.62705236,-1.64414382,-0.3315471113,-0.8237518072
24.63705236,-2.345264435,-0.4491386712,-0.9170614481
24.64705236,-2.640159607,-0.6603453159,-1.009302139
24.65705236,-2.907413244,-0.9272934198,-1.171486855
24.66705236,-3.181080818,-1.185078621,-1.416443825
24.67705236,-3.47597599,-1.294576168,-1.749823451
24.68705236,-3.471852541,-1.497230768,-2.5419631
24.69705236,-3.048675776,-1.496772528,-3.121368647
24.70705236,-2.683225632,-0.7999280095,-3.54927969
24.71705236,-2.438574076,0.1858557463,-3.510184526
24.72705236,-2.273793221,1.304197311,-3.262784004
24.73705236,-1.884824753,2.309376001,-1.99325335
24.74705236,-1.957364917,2.118175268,-1.493718266
24.75705236,-1.983173966,1.579544783,-1.252273798
24.76705236,-1.938733578,0.4289801121,-1.053437114
24.77705236,-1.90406692,-0.5919284225,-0.8283332586
24.78705236,-1.861917257,-1.067487001,-0.5757405162
24.79705236,-1.745089293,-0.9573785663,-0.2823724449
24.80705236,-1.137889266,-0.4517348409,-0.2574796975
24.81705236,-0.9378308654,0.008246680722,-0.3506366611
24.82705236,-0.7023423314,0.5858197808,-0.3393356502
24.83705236,-0.4888449013,0.6032294035,-0.3909537494
24.84705236,-0.009926560335,0.03405573592,-0.2764165103
24.85705236,0.3203988075,0.02580905706,-0.3258966208
24.86705236,0.6323982477,0.1322523206,-0.35017851
24.87705236,0.8776606321,0.04489859566,-0.2364048511
24.88705236,1.074970126,-0.1317941695,-0.02641992271
24.89705236,1.21042943,-0.2512183189,0.5305364728
24.90705236,1.250288486,0.05192354694,0.7762570381
24.91705236,1.234864116,0.3640756905,1.053895235
24.92705236,1.164614558,0.6316346526,1.29961586
24.93705236,1.0015136,0.7316638231,1.521359921
24.94705236,0.5983424783,0.4491386712,1.676825047
24.95705236,0.5396994352,0.3032945991,1.556484699
24.96705236,0.5966626406,0.1249219403,1.350317597
24.97705236,0.7240280509,-0.07467827946,1.109789491
24.98705236,0.814894259,-0.2128865421,0.8074111342
24.99705236,0.4225660264,0.4706716835,-0.1123992056
25.00705236,-0.05497787148,1.229060888,-0.5458080769
25.01705236,-0.1992947906,1.843285918,-0.8266534209
25.02705236,-0.08796459436,2.092977047,-0.9537133574
25.03705236,0.04062253982,2.010204792,-1.06550169
25.04705236,0.3468187451,1.507004619,-1.201724648
25.05705236,0.5621487498,0.9960157871,-1.244027019
25.06705236,0.8487972617,0.2718350291,-1.181260705
25.07705236,0.9027060866,-0.2736676335,-1.087798238
25.08705236,0.1501201391,0.2852740586,-1.028544307
25.09705236,-0.7539604306,1.702634096,-0.6776022911
25.10705236,-1.89582026,1.430493712,0.3300199509
25.11705236,-1.75089252,0.4560109079,1.06809783
25.12705236,-1.340085626,-0.7142542005,1.551903129
25.13705236,-0.9199630618,-1.511891484,1.848325491
25.14705236,-0.7602217793,-1.845118523,2.136959314
25.15705236,-0.4251621962,-2.269822598,2.455067396
25.16705236,0.002748893574,-2.320371628,2.45537281
25.17705236,0.5531384945,-2.130697966,2.330909014
25.18705236,0.9923505783,-1.657582879,2.116495371
25.19705236,1.284344196,-0.9789115787,1.901165366
25.20705236,2.015091658,-0.116217114,1.455233693
25.21705236,2.615114212,-0.1017090604,1.140638113
25.22705236,3.198795795,0.1789835095,1.011745572
25.23705236,3.616933107,0.7964155674,1.041219831
25.24705236,3.961155653,1.090852618,0.9981538057
25.25705236,4.47855854,1.839468002,0.9964739084
25.26705236,4.467868328,1.698969007,1.118952394
25.27705236,4.492608547,1.232267857,1.094517827
25.28705236,4.58591795,0.75915277,0.8512406945
25.29705236,4.3722682,1.204168081,0.6366742849
25.30705236,1.425912142,0.9425650835,0.5757405162
25.31705236,0.2058615834,-0.3535382748,0.3938553631
25.32705236,-0.4648684561,-0.6656904221,0.2981022298
25.33705236,-0.66889745,-0.2964223623,0.3040581644
25.34705236,-0.4714352489,0.4063780904,0.4002694488
25.35705236,-0.2609921694,0.6003278494,0.5731443167
25.36705236,-0.3686571717,0.4514294267,0.6591235995
25.37705236,-0.4764748812,0.3165809214,0.6733261943
25.38705236,-0.6291912198,0.2492330223,0.58276546
25.39705236,-0.8029823899,0.1760819107,0.3911064863
25.40705236,-0.9587529898,-0.08063421398,0.1653917581
25.41705236,-1.287703991,-0.6867652535,-0.4111123085
25.42705236,-1.509600759,-0.8422304392,-0.672868073
25.43705236,-1.815491557,-0.8384125233,-0.8639161587
25.44705236,-2.173458576,-0.7841982841,-0.9692904353
25.45705236,-2.524095297,-0.8269588351,-1.02991879
25.46705236,-3.095559597,-0.9082038999,-1.222188592
25.47705236,-3.278055668,-0.853836894,-1.44866693
25.48705236,-3.486666203,-0.7730499506,-1.827556133
25.49705236,-3.702301502,-0.5064072609,-2.360536098
25.50705236,-3.563482523,-0.3135266006,-2.835789204
25.51705236,-2.455831051,-0.02916881628,-3.478419304
25.52705236,-1.979966998,0.5757405162,-3.500410557
25.53705236,-1.576185107,1.182940602,-3.187647581
25.54705236,-1.51723659,1.431868076,-2.644435644
25.55705236,-1.655139327,1.726305127,-2.107943296
25.56705236,-1.733177423,1.379944563,-1.446681619
25.57705236,-1.687515259,0.4772384763,-1.085354805
25.58705236,-1.724778056,-0.1441642046,-0.7455610037
25.59705236,-1.693776608,-0.4897612035,-0.4935791194
25.60705236,-1.4909693,-0.3824016452,-0.2174680233
25.61705236,-0.8439103365,0.07009678334,-0.2625193298
25.62705236,-0.5247332454,0.4043927789,-0.4260784984
25.63705236,-0.173333019,0.5992587805,-0.3769038618
25.64705236,0.06475171447,0.287412107,-0.2568688393
25.65705236,0.2779437006,-0.2411390543,-0.2649627924
25.66705236,0.5885686874,-0.3585779071,-0.3527746797
25.67705236,1.098183036,-0.01847867295,-0.3042109013
25.68705236,1.324661255,-0.184786737,-0.1492038369
25.69705236,1.466534734,-0.4528038502,0.03833179548
25.70705236,1.498910546,-0.5995642543,0.279165417
25.71705236,1.43782413,-0.6081163287,0.5746715069
25.72705236,1.166447163,-0.2376265824,1.105666041
25.73705236,0.9611964822,0.02382374369,1.295492411
25.74705236,0.703869462,0.09972374886,1.461189628
25.75705236,0.4769330323,-0.03084869497,1.55236125
25.76705236,0.3640756905,-0.2587014437,1.525788665
25.77705236,0.397673279,-0.8880453706,1.225701094
25.78705236,0.4850270152,-1.252121091,0.9586002827
25.79705236,0.5181664228,-1.387580395,0.6661485434
25.80705236,0.4321871698,-1.071763039,0.3504839242
25.81705236,0.2199114859,-0.2997821271,0.02290744707
25.82705236,-0.004734205548,1.131475091,-0.5244278312
25.83705236,0.09010262042,1.536936998,-0.7214318514
25.84705236,0.1873829067,1.731344819,-0.893848598
25.85705236,0.290771842,1.699121714,-1.059087634
25.86705236,0.4007275999,1.624137998,-1.230588078
25.87705236,0.5283984542,1.37597394,-1.532355428
25.88705236,0.6276640296,0.940579772,-1.519069195
25.89705236,0.4619668424,0.8443684578,-1.298394084
25.90705236,-0.3849978149,1.643074751,-0.6748533845
25.91705236,-1.343903542,2.1258111,-0.1408044398
25.92705236,-0.9166033268,0.2710714638,0.9179777503
25.93705236,-0.4112650156,-1.130253434,1.263574719
25.94705236,-0.2345722616,-2.010204792,1.56625843
25.95705236,-0.02901609987,-2.135432243,2.009593964
25.96705236,0.2015855312,-1.863139033,2.448958874
25.97705236,0.3510948122,-1.715767741,2.666732311
25.98705236,0.3955352604,-1.994933128,2.03402853
25.99705236,0.5082398653,-2.01493907,1.45019412
26.00705236,0.5685628057,-1.594969153,1.010371089
26.01705236,0.6432411075,-0.7964155674,0.8778133392
26.02705236,0.8350527883,-0.1490511149,0.8211556077
26.03705236,1.406211853,0.4932736754,0.6612616181
26.04705236,1.728901386,0.6362161636,0.7383833528
26.05705236,2.060906649,0.8231409192,0.8327620625
26.06705236,2.33885026,0.7948883772,0.976162672
26.07705236,2.585792542,0.4425718784,1.100779176
26.08705236,3.098919392,0.4492913783,1.122006774
26.09705236,3.264463902,0.3559817076,1.045495868
26.10705236,3.404504776,0.009010262787,1.119105101
26.11705236,3.548210859,-0.09743300825,1.145066857
26.12705236,3.760486364,0.007483099122,0.986700058
26.13705236,4.021936893,1.112232924,0.3718642294
26.14705236,2.885116577,2.121687651,0.4341724813
26.15705236,1.034500241,1.721112847,0.6598871946
26.16705236,-0.6504187584,0.5088507533,0.799164474
26.17705236,-1.515556693,0.02122756653,0.7845036983
26.18705236,-1.232420683,-0.06750060618,0.5601634383
26.19705236,-0.9028588533,-0.1127046347,0.5300782919
26.20705236,-0.6637051105,-0.0956004113,0.338113904
26.21705236,-0.5461135507,0.03100141138,0.09315694869
26.22705236,-0.5896376967,0.1715004146,-0.122020334
26.23705236,-1.015105367,0.5482515693,-0.6125451326
26.24705236,-1.494634509,0.7058547735,-0.8037459254
26.25705236,-2.012800932,0.5845980644,-0.9743300676
26.26705236,-2.449264288,0.1806633919,-1.078329921
26.27705236,-2.800511599,-0.3733913898,-1.128268123
26.28705236,-3.079677105,-0.901789844,-1.230740786
26.29705236,-3.465285778,-1.37078166,-1.663538814
26.30705236,-3.653584957,-1.35276103,-1.972025752
26.31705236,-3.788738966,-1.028544307,-2.375349522
26.32705236,-3.597079992,-0.8411614299,-2.8179214
26.33705236,-3.099683046,-0.774882555,-3.372586966
26.34705236,-2.162615776,0.6676757336,-3.40435195
26.35705236,-1.806939363,1.189201951,-3.028517246
26.36705236,-1.610698938,1.333213449,-2.755918503
26.37705236,-1.557553649,1.214247346,-2.392759085
26.38705236,-1.586417079,1.062752843,-1.899180055
26.39705236,-1.635591745,0.4476115108,-1.160185814
26.40705236,-1.744020224,-0.3048217595,-0.9980010986
26.41705236,-1.852907062,-0.6792821288,-0.889877975
26.42705236,-1.82358551,-0.6459900141,-0.6346889734
26.43705236,-1.598939776,-0.3882048726,-0.2564106882
26.44705236,-0.6510296464,-0.2528982162,0.2151772827
26.45705236,-0.326202035,0.2364048511,-0.02443460934
26.46705236,-0.1076650023,0.4633412957,-0.05177082866
26.47705236,0.06322455406,0.3329215646,0.1426370293
26.48705236,0.2730567753,0.1276708394,0.2217440903
26.49705236,0.8900306821,0.6217080951,0.1171334088
26.50705236,1.230740786,0.6840163469,0.169362396
26.51705236,1.421941519,0.6177374721,0.3602577746
26.52705236,1.403004766,0.342695415,0.6214026809
26.53705236,1.248608589,0.2156354338,0.8797986507
26.54705236,1.115287185,0.405461818,1.087340117
26.55705236,1.063669086,1.099862933,1.326799273
26.56705236,0.9757044911,1.289536476,1.426828504
26.57705236,0.7964155674,1.297172308,1.491885662
26.58705236,0.6076582074,1.16140759,1.460884213
26.59705236,0.4540255964,0.9384417534,1.36360395
26.60705236,0.2066251636,0.3032945991,1.106582403
26.61705236,0.08704829961,0.001069014193,1.000291824
26.62705236,-0.09651670605,-0.1756237596,0.868955791
26.63705236,-0.2811507285,-0.04001167417,0.5879577994
26.64705236,-0.4505131245,0.3885102868,0.153479889
26.65705236,-0.353843689,0.8306240439,-0.4534147382
26.66705236,-0.2532036304,0.703869462,-0.6264423132
26.67705236,-0.2619084716,0.5940664411,-0.7283040881
26.68705236,-0.2860376537,0.4421137273,-0.7803803682
26.69705236,-0.2536617815,0.1754710376,-0.8208501935
26.70705236,0.2477058619,-0.5517640114,-0.8830057383
26.71705236,0.5096143484,-0.7041749358,-0.9514226317
26.72705236,0.2976440787,0.1566869318,-0.995252192
26.73705236,-0.3909537494,1.047023058,-0.8953757286
26.74705236,-1.162934661,1.153313637,-0.6163630486
26.75705236,-0.6192646623,-0.3174972236,0.8764389157
26.76705236,-0.05146539584,-1.114676356,1.582904577
26.77705236,0.08857546002,-1.542587519,2.128559828
26.78705236,0.09804387391,-1.934304833,2.466979265
26.79705236,0.1838704348,-2.478280306,2.590832233
26.80705236,0.8827002645,-2.867554188,2.093129873
26.81705236,1.176068306,-2.558456421,1.559691668
26.82705236,1.339169383,-1.887420893,1.124602914
26.83705236,1.461495042,-1.069777727,0.9384417534
26.84705236,1.554652095,-0.6090326309,0.7600690722
26.85705236,1.753335953,-0.2660318017,0.5320636034
26.86705236,2.277611017,0.1798998117,0.5372560024
26.87705236,2.547002554,0.2510656118,0.6383541822
26.88705236,2.813034534,0.3002402782,0.700509727
26.89705236,2.922684669,0.2729040384,0.7452555895
26.90705236,2.871677399,0.2182316035,0.7780895829
26.91705236,2.756223917,-0.3425426781,0.8619308472
26.92705236,2.74415946,-0.7029531598,0.8246681094
26.93705236,2.689945221,-0.802524209,0.7716755271
26.94705236,2.527302265,-0.5218316317,0.6916521788
26.95705236,2.117717028,-0.1320996135,0.5613851547
26.96705236,0.5313000679,-0.2373211533,0.4353941977
26.97705236,-0.1774563491,-0.6643159389,0.4001167417
26.98705236,-0.6050620079,-0.9692904353,0.3808744848
26.99705236,-0.6963863969,-0.8147414923,0.421038866
27.00705236,-0.7093672752,-0.5164865851,0.5496259928
27.01705236,-0.9877691269,-0.3202461004,0.6267477274
27.02705236,-1.216996312,-0.3422372639,0.6148358583
27.03705236,-1.439656615,-0.4271475375,0.4292855561
27.04705236,-1.664455056,-0.554512918,0.2018909603
27.05705236,-1.837177277,-0.8225300312,-0.01053742506
27.06705236,-1.998140216,-1.179275393,-0.3491095006
27.07705236,-2.113288403,-1.08199501,-0.4155410826
27.08705236,-2.289522886,-1.027169943,-0.4990769029
27.09705236,-2.517375708,-1.080620646,-0.5905539989
27.10705236,-2.748740911,-1.151328325,-0.6944010854
27.11705236,-3.138014793,-1.059087634,-1.070388675
27.12705236,-3.389080286,-0.9106473923,-1.358564258
27.13705236,-3.682753801,-0.6766859889,-1.699732542
27.14705236,-3.688709736,-0.4906775057,-2.088242769
27.15705236,-2.951090097,-0.9521862268,-2.504547596
27.16705236,-2.29914403,-1.196379542,-2.959947586
27.17705236,-1.575726867,1.364520192,-3.214831114
27.18705236,-1.220355988,2.235003233,-2.956740618
27.19705236,-1.176984668,2.554027557,-2.509587049
27.20705236,-1.366200089,2.022880316,-2.166586399
27.21705236,-1.516931176,1.224326611,-1.955837846
27.22705236,-1.255480766,-0.5296201706,-1.245401502
27.23705236,-1.046870351,-1.293507099,-0.8225300312
27.24705236,-0.8856018782,-1.748601794,-0.247858569
27.25705236,-0.6632469296,-2.066098928,0.1664607823
27.26705236,-0.1212567538,-1.897500157,0.02962696366
27.27705236,0.3455969989,-1.288925648,-0.672257185
27.28705236,0.4022547603,-1.631773829,-0.3860668242
27.29705236,0.5317581892,-1.906968594,-0.2388483137
27.30705236,0.7331910133,-2.027461767,-0.2069306076
27.31705236,0.9338602424,-2.181094408,-0.1873829067
27.32705236,1.284496903,-2.584570885,-0.1168279797
27.33705236,1.335656881,-2.754391432,0.07864890248
27.34705236,1.270447016,-2.838690758,0.3506366611
27.35705236,1.109942198,-2.858238459,0.6681338549
27.36705236,0.854447782,-2.940399885,1.029460669
27.37705236,0.460134238,-3.000264645,1.534035325
27.38705236,0.3338378668,-3.12839365,1.623985291
27.39705236,0.2762638032,-3.245527029,1.609935403
27.40705236,0.2660318017,-3.326008558,1.537547827
27.41705236,0.2700024247,-3.251788378,1.403615594
27.42705236,0.2700024247,-3.251788378,1.403615594
27.43705236,0.224187538,-2.016466141,0.7425066829
27.44705236,0.2472477108,-1.110705733,0.3616322279
27.45705236,-0.1750128865,-0.0140499007,-0.1055269688
27.46705236,-0.5487096906,0.5645921826,-0.6180428863
27.47705236,-0.5597052574,0.6459900141,-0.9692904353
27.48705236,-0.1589776874,0.1305724531,-1.398728728
27.49705236,-0.1065959856,-0.4101960063,-1.47859931
27.50705236,-0.1748601794,-1.134376764,-1.498299718
27.51705236,-0.3987422884,-1.771967411,-1.457371712
27.52705236,-0.7002043128,-2.264019251,-1.341001987
27.53705236,-1.368338108,-2.236988544,-1.106582403
27.54705236,-1.882381201,-2.035403013,-0.9373727441
27.55705236,-2.289522886,-1.844660282,-0.7880161405
27.56705236,-2.306932688,-1.461800575,-0.4147774875
27.57705236,-1.563814998,-1.35276103,-0.01618792862
27.58705236,-0.1884519309,-2.39657712,-0.05345070735
27.59705236,0.3208569586,-2.142915249,0.06658431143
27.60705236,0.7405213714,-1.870927572,0.3139847219
27.61705236,0.8949176073,-1.948812842,0.4889976382
27.62705236,1.049771905,-2.07373476,0.5589417219
27.63705236,1.395674348,-1.830763102,0.3008511364
27.64705236,1.475545049,-1.495550871,0.1913535446
27.65705236,1.606881022,-1.273043156,0.1007927656
27.66705236,1.906052232,-1.125977397,0.07666359097
27.67705236,2.369393587,-0.9457721114,0.0963639915
27.68705236,3.194977999,-0.8570439219,0.3530801237
27.69705236,3.293174505,-0.6230825782,0.5824599862
27.70705236,3.294243574,-0.5897904038,0.7693848014
27.71705236,3.23926568,-0.6059783101,0.9097310901
27.72705236,3.094795942,-0.5305364728,0.951880753
27.73705236,2.793639421,-0.3924809098,0.8750644922
27.74705236,1.536631465,-0.5528330207,0.539394021
27.75705236,0.8811731339,-0.9088147879,0.4056145251
27.76705236,0.4773911834,-1.278082848,0.3139847219
27.77705236,0.4694499373,-1.327257514,0.334448725
27.78705236,0.7345654368,-1.418581843,0.5227479339
27.79705236,0.6349944472,-1.521054506,0.6615670323
27.80705236,0.3643811047,-1.476308584,0.6524040699
27.81705236,-0.005803219974,-1.415069342,0.5997169614
27.82705236,-0.3585779071,-1.2774719,0.5033529401
27.83705236,-0.664468646,-1.161102057,0.3714060783
27.84705236,-1.026406288,-1.195310593,0.0594066456
27.85705236,-1.141096234,-1.274264932,-0.0726929605
27.86705236,-1.222035885,-1.398270488,-0.2160935849
27.87705236,-1.359480619,-1.528690219,-0.3715587854
27.88705236,-1.560149789,-1.720043778,-0.5652030706
27.89705236,-1.993864179,-1.955074191,-1.052826285
27.90705236,-2.196366072,-1.850768924,-1.2666291
27.91705236,-2.324342251,-1.613447785,-1.425148606
27.92705236,-2.360994101,-1.297935963,-1.53327179
27.93705236,-2.343126297,-1.033583999,-1.684460878
27.94705236,-2.269669771,-1.162934661,-2.293188095
27.95705236,-2.022422075,-1.788308024,-2.635119915
27.96705236,-1.791667819,-2.027461767,-2.84678483
27.97705236,-1.768149495,-1.238834739,-2.814561605
27.98705236,-1.604590297,-0.3610213697,-2.730720282
27.99705236,-1.610393524,0.4149302244,-2.492177486
28.00705236,-1.609782696,0.370337069,-2.203085423
28.01705236,-1.490511179,0.04062253982,-1.765553236
28.02705236,-1.346499681,-0.5332853794,-1.450346828
28.03705236,-1.043052435,-0.986700058,-1.298241377
28.04705236,-0.7570147514,-0.9935722947,-1.274417639
28.05705236,-0.468686372,-0.1912008226,-1.453706622
28.06705236,-0.2864958048,-0.2217440903,-1.341765523
28.07705236,-0.02382374369,-0.4257730842,-1.149190187
28.08705236,0.3405573666,-0.5100724697,-0.9392052889
28.09705236,0.6580545902,-0.6777549982,-0.7941248417
28.10705236,1.022435665,-1.210734963,-0.7890852094
28.11705236,1.199128509,-1.552055836,-0.7936666608
28.12705236,1.385289669,-1.845576644,-0.7576256394
28.13705236,1.514487624,-1.966222525,-0.6218608022
28.14705236,1.54716897,-2.132988691,-0.3724750876
28.15705236,1.520748973,-2.047314882,0.2897028327
28.16705236,1.407280803,-1.969735026,0.6614143252
28.17705236,1.154382586,-1.947743893,1.013578176
28.18705236,0.8384125233,-1.899790883,1.259756804
28.19705236,0.5175555944,-1.959350228,1.402852058
28.20705236,0.1631010175,-2.340224743,1.505172014
28.21705236,0.1608102769,-2.69208312,1.514334917
28.22705236,0.1878410578,-3.146261454,1.430035591
28.23705236,0.2790127099,-3.411376953,1.252579212
28.24705236,0.4431827366,-3.164129257,1.005789638
28.25705236,0.4928155243,-1.120021462,0.1511891484
28.26705236,0.2351831198,0.1904372424,-0.3492622077
28.27705236,0.1895209402,0.9776898026,-0.6916521788
28.28705236,0.2767219543,1.192103505,-0.9323330522
28.29705236,0.3539963961,1.076039076,-1.069777727
28.30705236,0.3390302062,0.3993531466,-1.326188445
28.31705236,0.3327688277,-0.1640173197,-1.443932772
28.32705236,0.5125159621,-0.9929614663,-1.484097123
28.33705236,0.6717990637,-1.526857734,-1.505477428
28.34705236,0.3992004395,-0.8535314798,-1.441641927
28.35705236,-0.3726277947,0.6020076871,-1.046717644
28.36705236,-1.367574573,0.7101308703,0.01649336144
28.37705236,-1.25166285,-0.8675813675,0.8819366693
28.38705236,-1.079093456,-2.379930973,1.334893227
28.39705236,-0.6980662346,-3.309515238,1.485624313
28.40705236,-0.243887946,-3.626859665,1.68690443
28.41705236,0.6687447429,-3.067154408,2.064419031
28.42705236,1.010065675,-2.628247738,1.887879014
28.43705236,1.091463447,-2.580905676,1.443627238
28.44705236,1.124450207,-2.701704264,0.9753990769
28.45705236,1.112385631,-2.412765026,0.5862779021
28.46705236,1.030682325,-0.9024006724,0.212428391
28.47705236,1.180802464,-0.4870123267,0.1240056455
28.48705236,1.464396715,-0.4896084964,0.03817907721
28.49705236,1.768149495,-0.6440047026,-0.01695151068
28.50705236,2.031584978,-0.7017314434,0.08002334833
28.51705236,2.386955976,-0.1699732542,0.4143193662
28.52705236,2.405892849,-0.09850201756,0.5842925906
28.53705236,2.433992624,-0.1835650057,0.7290676832
28.54705236,2.611296177,-0.34605515,0.7583891749
28.55705236,2.810132742,-0.5792529583,0.5615378618
28.56705236,2.835789204,-0.9179777503,0.2263255715
28.57705236,2.673757076,-0.3686571717,0.1233947799
28.58705236,2.115579128,0.1608102769,0.1235474944
28.59705236,1.138347387,0.2671008408,0.2380847335
28.60705236,0.03665191308,-0.1369865239,0.3597996235
28.61705236,-0.8684976697,-0.6817256212,0.4036292136
28.62705236,-1.643074751,-0.9199630618,0.4842634201
28.63705236,-1.550528765,-0.8388707042,0.6224716902
28.64705236,-1.492954612,-0.9343183637,0.7061602473
28.65705236,-1.577712178,-1.045648575,0.6788240075
28.66705236,-1.769218445,-0.9388998747,0.5345070958
28.67705236,-2.392301083,-0.6947064996,0.137597397
28.68705236,-2.654362202,-0.75915277,-0.02947424725
28.69705236,-2.836094618,-0.876897037,-0.1617265791
28.70705236,-2.947424889,-1.046564937,-0.3052799106
28.71705236,-3.026989937,-1.302822828,-0.4834998548
28.72705236,-3.110525846,-1.892613292,-1.048092008
28.73705236,-3.152981043,-2.070222378,-1.368796349
28.74705236,-3.177873611,-2.290897369,-1.676366925
28.75705236,-3.077080965,-2.540435791,-2.019673109
28.76705236,-2.860682011,-2.825251818,-2.378098488
28.77705236,-1.707673788,-2.528523922,-2.957046032
28.78705236,-1.280373573,-1.51265502,-2.895043135
28.79705236,-1.039998055,-0.3474296033,-2.716975927
28.80705236,-0.6860016584,0.6487388611,-2.571895361
28.81705236,-0.3808744848,1.174388409,-2.342515469
28.82705236,-0.181121543,0.1020144969,-1.795638442
28.83705236,-0.1970040351,-0.5656611919,-1.472032547
28.84705236,-0.2626720667,-0.8258898258,-1.126588225
28.85705236,-0.2886338234,-0.9014843702,-0.8022187948
28.86705236,-0.1951714456,-1.243874311,-0.5881105065
28.87705236,0.3866777122,-1.537853241,-0.1450804919
28.88705236,0.5780312419,-1.524719596,-0.09773843735
28.89705236,0.6861543655,-1.420109034,-0.1815796942
28.90705236,0.7250970602,-1.493412852,-0.1490511149
28.91705236,0.7641924024,-1.595274568,-0.07528914511
28.92705236,0.8087855577,-1.625512362,-0.02672535367
28.93705236,0.9821186066,-1.631468296,0.06826419383
28.94705236,1.128268123,-1.758681059,0.06490442902
28.95705236,1.299157619,-1.880701423,0.0833831057
28.96705236,1.432631731,-1.851379871,0.165086329
28.97705236,1.474628687,-1.640936732,0.287106663
28.98705236,1.225242972,-1.044732332,0.628885746
28.99705236,1.006858587,-0.9364564419,0.7811439037
29.00705236,0.8078693151,-0.9146180153,0.8707883954
29.01705236,0.6203336716,-0.9512699246,0.9233227968
29.02705236,0.4332561791,-1.007622242,0.9660834074
29.03705236,0.2153300047,-1.187522054,0.9363036752
29.04705236,0.1562287807,-1.282206178,0.866206944
29.05705236,0.1211040318,-1.331075311,0.7672467232
29.06705236,0.09208793938,-1.275639296,0.6343835592
29.07705236,0.0369573459,-1.174999356,0.4909829497
29.08705236,0.006261368748,-1.200502872,0.1795943826
29.09705236,0.03145955876,-1.274112225,0.03390302137
29.10705236,0.03909537569,-1.294270754,-0.07605272532
29.11705236,0.005192354787,-1.232726097,-0.1879937798
29.12705236,-0.0354301855,-1.232267857,-0.3601050675
29.13705236,-0.2985603809,-1.435991526,-0.5975789428
29.14705236,-0.7064656615,-1.415832877,-0.6553056836
29.15705236,-0.9381362796,-1.455997348,-0.7101308703
29.16705236,-0.9657779336,-1.631468296,-0.7365507483
29.17705236,-1.124908328,-1.459357023,-0.9489791393
29.18705236,-1.088409185,-0.4218024611,-1.140027285
29.19705236,0.0354301855,-1.006247759,-0.7350236177
29.20705236,0.8243626356,-1.725541592,-0.5534439087
29.21705236,1.078329921,-1.819309473,-0.3871358633
29.22705236,1.19958663,-1.546405315,-0.04886921868
29.23705236,1.353830099,-1.485013366,0.2295326144
29.24705236,1.155298948,-1.858099341,0.3353650272
29.25705236,0.9372199774,-2.005012512,0.306807071
29.26705236,0.8122980595,-2.035708427,0.3300199509
29.27705236,0.8613200188,-1.798692703,0.3214678466
29.28705236,1.136972904,-1.41873455,0.2608394623
29.29705236,1.864666104,-0.3689626157,0.1076650023
29.30705236,2.13925004,-0.09544769675,0.1941024363
29.31705236,2.303725481,0.1493565589,0.3562871516
29.32705236,2.33671236,0.2822197378,0.5729916096
29.33705236,2.356718063,0.2654209435,0.7585419416
29.34705236,2.231338024,0.503811121,0.8515461683
29.35705236,2.04746747,0.5940664411,0.7728972435
29.36705236,1.787697196,0.5258022547,0.6388123035
29.37705236,1.410640597,0.3115412891,0.4868595898
29.38705236,0.9573785663,0.09514226019,0.3594942093
29.39705236,0.4031710625,0.1310305893,0.3081815243
29.40705236,0.3610213697,0.1745547503,0.3243694305
29.41705236,0.3080287874,0.192727983,0.2707660198
29.42705236,0.1718058437,0.4039346576,0.1623374373
29.43705236,-0.004581489135,0.6907358766,0.02382374369
29.44705236,-0.5186246037,1.078635335,-0.4505131245
29.45705236,-0.735481739,1.024726391,-0.6238461137
29.46705236,-0.8675813675,0.8619308472,-0.7075346708
29.47705236,-0.8969029188,0.5064072609,-0.7667886019
29.48705236,-0.833983779,0.133626774,-0.8665123582
29.49705236,-0.7790058851,-0.07849618047,-0.9630290866
29.50705236,-0.8202393055,0.08552113175,-1.220814228
29.51705236,-1.060920238,0.4236350358,-1.420109034
29.52705236,-1.377806544,0.6392704844,-1.591762066
29.53705236,-1.627803206,0.6026185751,-1.674534321
29.54705236,-1.76066637,0.2790127099,-1.721112847
29.55705236,-1.933388472,-0.7942775488,-1.976912618
29.56705236,-1.772425532,-1.486693263,-2.152994633
29.57705236,-1.550681472,-1.901776195,-2.255772591
29.58705236,-1.553735733,-1.95767045,-2.122909546
29.59705236,-1.74676919,-1.570076346,-1.900859952
29.60705236,-1.717600346,-0.9692904353,-1.60703373
29.61705236,-1.551597714,-1.095892191,-1.459051609
29.62705236,-1.367421865,-1.200961113,-1.339169383
29.63705236,-1.194699645,-1.275639296,-1.272737741
29.64705236,-0.9955576062,-1.295492411,-1.234100461
29.65705236,-0.6424775124,-0.9940304756,-0.9607383013
29.66705236,-0.4205807149,-0.9711230397,-0.876897037
29.67705236,-0.1577559561,-0.9616546035,-0.7515169382
29.68705236,0.137597397,-0.8936958313,-0.464715749
29.69705236,0.3947716653,-0.9341656566,-0.1699732542
29.70705236,0.5403103232,-1.561371565,-0.216246292
29.71705236,0.597273469,-1.841453314,-0.4230241776
29.72705236,0.6690501571,-1.898263693,-0.4636467099
29.73705236,0.7238753438,-2.074498415,-0.381790787
29.74705236,0.8022187948,-2.039068222,-0.208305046
29.75705236,0.8709411025,-2.019825935,0.2312124968
29.76705236,0.8454375267,-2.139402866,0.5186246037
29.77705236,0.7661777139,-2.166738987,0.8567385077
29.78705236,0.6180428863,-2.189646482,1.152397275
29.79705236,0.4899139404,-2.141999006,1.371392488
29.80705236,0.4207334518,-1.969429493,1.510364294
29.81705236,0.220369637,-1.729359508,1.552208543
29.82705236,0.1043052375,-1.788766146,1.417818189
29.83705236,0.04062253982,-1.933999419,1.212109327
29.84705236,0.05849034712,-2.115120888,0.9462302923
29.85705236,0.1004873365,-2.274709463,0.6608034968
29.86705236,-0.7816020846,-0.8177958727,-0.5128213763
29.87705236,-0.6284276247,0.4147774875,-0.9581421614
29.88705236,-0.3718642294,1.097419381,-1.06962502
29.89705236,-0.2548835278,1.167974353,-1.208749652
29.90705236,-0.3036000133,1.005178809,-1.358411551
29.91705236,-0.3036000133,1.005178809,-1.358411551
29.92705236,-0.4796819389,0.2612976134,-1.498757839
29.93705236,-0.2261728644,0.09300423414,-1.389107585
29.94705236,-0.3417791128,0.3530801237,-1.188438296
29.95705236,-0.8625417352,0.8474228382,-0.7564038634
29.96705236,-1.302670121,1.104597092,0.8083274364
29.97705236,-0.9847147465,0.263435632,1.727374196
29.98705236,-0.5699372888,-1.029155254,2.390010357
29.99705236,-0.3084869385,-2.250274897,2.690556049
30.00705236,-0.06307183951,-3.012481928,2.888781786
30.01705236,0.8365799785,-3.08868742,2.977204561
30.02705236,1.360702276,-2.639854193,2.855336905
30.03705236,1.765247822,-2.150245667,2.511877775
30.04705236,1.958586693,-1.782046676,1.945758581
30.05705236,2.049147367,-1.4553864,1.340696454
30.06705236,2.049147367,-1.4553864,1.340696454
30.07705236,2.451096773,0.3807217777,0.4903720617
30.08705236,2.661692619,0.7611380816,0.4077525437
30.09705236,2.867859602,0.7637342811,0.3646865487
30.10705236,3.041497946,0.2773328125,0.4155410826
30.11705236,3.194519758,-0.2509129047,0.4783074856
30.12705236,3.20780611,-0.4486805201,0.5603161454
30.13705236,2.961627483,-0.6067419052,0.7197519541
30.14705236,2.629316807,-0.8600982428,0.8605564237
30.15705236,2.206598043,-1.051451802,0.8981246352
30.16705236,1.693929315,-1.116814375,0.8290968537
30.17705236,0.7707592249,-1.133765936,0.5290092826
30.18705236,0.5328271985,-1.166752577,0.445015341
30.19705236,0.4401284158,-1.106276989,0.4346306324
30.20705236,0.3998112977,-0.9022479653,0.4674646258
30.21705236,0.3411682248,-0.7092145681,0.4709770977
30.22705236,0.0720821023,-0.5887213945,0.3194825351
30.23705236,-0.200821951,-0.5548183322,0.306807071
30.24705236,-0.5100724697,-0.5705481172,0.2974913716
30.25705236,-0.5100724697,-0.5705481172,0.2974913716
30.26705236,-0.9995282292,-0.8494081497,0.09407325089
30.27705236,-1.206153393,-1.166752577,-0.1562287807
30.28705236,-1.349554062,-1.314734697,-0.2984076738
30.29705236,-1.539075017,-1.38834393,-0.4254676402
30.30705236,-1.768149495,-1.44042027,-0.5413793325
30.31705236,-2.040748119,-1.565494895,-0.6598871946
30.32705236,-2.592512131,-2.32541132,-0.8950703144
30.33705236,-2.826320887,-2.741715908,-1.026253581
30.34705236,-3.022561312,-2.887407303,-1.220814228
30.35705236,-3.111136675,-2.545475483,-1.592373013
30.36705236,-2.837774515,-2.432923555,-2.132988691
30.37705236,-2.474920511,-2.740799665,-2.674978971
30.38705236,-2.534327269,-0.3744603992,-3.475212336
30.39705236,-2.568077564,1.479821086,-3.67511797
30.40705236,-2.178192854,2.777756929,-3.456428289
30.41705236,-1.549154282,3.128699064,-2.747519255
30.42705236,-1.276708364,2.94635582,-2.05311799
30.43705236,-1.641089439,0.4825835526,-1.274723053
30.44705236,-1.844354868,-0.9048441648,-1.082758665
30.45705236,-1.873065591,-1.871385694,-0.8608618379
30.46705236,-1.764636993,-2.219731569,-0.6004805565
30.47705236,-1.602757692,-1.980425119,-0.5786421299
30.48705236,-1.186605692,-1.192561626,-0.7765624523
30.49705236,-1.058476806,-1.34604156,-0.6908885837
30.50705236,-0.7877107263,-1.283733368,-0.5396994352
30.51705236,-0.41309762,-1.070235968,-0.5013676286
30.52705236,-0.01649336144,-0.8481863737,-0.597273469
30.53705236,0.6343835592,-0.7348709106,-0.4952589869
30.54705236,1.071915746,-0.668286562,-0.566424787
30.55705236,1.448361516,-0.8587238193,-0.6145304441
30.56705236,1.636660695,-1.112232924,-0.5074763298
30.57705236,1.678504944,-1.229671717,-0.2738203406
30.58705236,1.567938328,-1.289536476,0.3547599912
30.59705236,1.418276429,-1.178969979,0.64980793
30.60705236,1.27899909,-0.9966266751,0.8952230215
30.61705236,1.171639562,-0.9375254512,1.095892191
30.62705236,1.094670534,-0.9673051238,1.215469122
30.63705236,0.9786061049,-1.121243119,1.285718679
30.64705236,0.9703594446,-1.272890449,1.214094639
30.65705236,1.051146388,-1.489136696,1.024726391
30.66705236,1.073290229,-1.400866747,0.6504187584
30.67705236,0.638048768,-0.8158105612,0.1879937798
30.68705236,-0.236099422,-0.05360342562,-0.4010330439
30.69705236,-0.307112515,2.129781723,-1.177748203
30.70705236,-0.123852931,2.647337198,-1.539075017
30.71705236,0.1256855279,2.494468212,-1.763720632
30.72705236,0.2434297949,1.932624936,-1.9123137
30.73705236,0.1936442852,1.194699645,-2.002874374
30.74705236,0.5001459122,-0.6650795341,-1.618945599
30.75705236,0.1233947799,-0.1939497143,-1.114065528
30.76705236,-0.6094908118,0.6345362663,-0.3075706363
30.77705236,-1.200655699,0.7435756922,0.4961752892
30.78705236,-1.70859015,0.0728456825,1.267392635
30.79705236,-1.399797678,-1.977218032,1.886962771
30.80705236,-1.109025836,-2.850297213,2.079538107
30.81705236,-0.8327620625,-3.284927845,2.313652039
30.82705236,-0.5658139586,-3.445738077,2.411237955
30.83705236,-0.3515529633,-3.5100317,2.315331936
30.84705236,0.4502076805,-3.212387562,1.733177423
30.85705236,0.8350527883,-2.716670513,1.339627504
30.86705236,1.039845347,-1.807397485,0.9511171579
30.87705236,1.246623278,-0.6299547553,0.5919284225
30.88705236,1.632690072,0.429132849,0.2955060601
30.89705236,2.946661234,1.536936998,0.3199406862
30.90705236,3.659693718,1.451415777,0.401185751
30.91705236,4.086841106,1.243721604,0.4726569951
30.92705236,4.342488289,1.119410515,0.6290385127
30.93705236,4.487874031,1.078329921,0.7774787545
30.94705236,4.363715649,0.4425718784,1.105055213
30.95705236,4.30018568,-0.04016438872,1.147815824
30.96705236,4.166864395,0.02962696366,1.127657294
30.97705236,3.614336967,0.4868595898,1.149343014
30.98705236,2.591901302,0.5621487498,1.202793717
30.99705236,1.491885662,0.109955743,1.195005178
31.00705236,0.2180788964,-0.8743008971,0.8170322776
31.01705236,-0.01084285788,-0.7276932001,0.6730207801
31.02705236,0.0201585535,-0.4242459238,0.6220135093
31.03705236,0.102472648,-0.204792574,0.5583308339
31.04705236,0.09361509979,-0.188910082,0.338724792
31.05705236,-0.1369865239,-0.2292271852,0.06918048859
31.06705236,-0.3329215646,-0.2782491148,-0.08949175477
31.07705236,-0.5838344693,-0.3680463135,-0.3251330256
31.08705236,-0.7982481718,-0.4277583957,-0.58276546
31.09705236,-1.014341712,-0.4427245855,-0.755793035
31.10705236,-1.55801177,-0.5829181671,-0.8862127662
31.11705236,-1.856724858,-0.7736608386,-0.8976664543
31.12705236,-2.16765523,-1.085049391,-0.8878926635
31.13705236,-2.479654789,-1.416749239,-0.9147707224
31.14705236,-2.755460501,-1.684308171,-1.007316828
31.15705236,-3.106249809,-1.855350494,-1.350623012
31.16705236,-3.232851505,-1.639409542,-1.647198081
31.17705236,-3.155271769,-1.445154428,-2.018604279
31.18705236,-2.848006487,-1.616960287,-2.481487274
31.19705236,-2.534632683,-1.565494895,-2.971248627
31.20705236,-2.360077858,0.192880705,-3.511558771
31.21705236,-2.167960644,1.495245457,-3.441309452
31.22705236,-1.814422488,2.32800746,-2.997973919
31.23705236,-1.666898489,2.46468854,-2.373669624
31.24705236,-1.687667966,2.145969629,-1.794263959
31.25705236,-1.762040854,0.3298672438,-1.177595496
31.26705236,-1.782962918,-0.6693555713,-0.9900598526
31.27705236,-1.750434399,-1.051909924,-0.7137960196
31.28705236,-1.574657917,-0.9318749309,-0.330172658
31.29705236,-1.20111382,-0.7247915864,-0.2234239578
31.30705236,-0.7852672935,-0.2625193298,-0.5085453391
31.31705236,-0.4554000497,0.5528330207,-0.7513642311
31.32705236,-0.3121521473,0.4749477208,-0.7947356701
31.33705236,-0.06291911751,0.5951354504,-0.7530441284
31.34705236,-0.06291911751,0.5951354504,-0.7530441284
31.35705236,0.2347249687,0.7825183868,-0.5658139586
31.36705236,0.9497427344,0.06750060618,-0.3962988257
31.37705236,1.274112225,-0.0606283769,-0.2948952019
31.38705236,1.502423048,-0.1440114826,-0.0723875314
31.39705236,1.560608029,-0.2883284092,0.2026545405
31.40705236,1.497230768,-0.3103195429,0.4918992519
31.41705236,1.348026872,0.1072068512,0.9729556441
31.42705236,1.226311922,0.2544253767,1.152244568
31.43705236,1.063363671,0.342389971,1.297019601
31.44705236,0.89323771,0.4124867618,1.38315165
31.45705236,0.7389942408,0.3604104817,1.401477575
31.46705236,0.7925976515,-0.05604688451,1.219745159
31.47705236,0.9957103729,-0.3397938013,1.051757216
31.48705236,1.214858294,-0.417068243,0.8251262307
31.49705236,1.328479171,-0.04474587739,0.4656320214
31.50705236,1.164767265,0.7528914213,0.001374446787
31.51705236,0.3428481221,2.560747147,-0.8762862086
31.52705236,0.3668245673,3.170085192,-1.047633886
31.53705236,0.5051855445,3.423899651,-1.232115149
31.54705236,0.5919284225,3.563024282,-1.369407177
31.55705236,0.6272059083,3.595400095,-1.436449647
31.56705236,0.6424775124,3.314707518,-1.372003317
31.57705236,1.012661815,1.031140566,-0.9772316813
31.58705236,0.2722931802,1.268461704,-0.802524209
31.59705236,-0.8894197941,1.760208249,-0.4999932051
31.60705236,-1.494176388,1.05465889,-0.07055493444
31.61705236,-1.285260439,0.1844813079,0.7765624523
31.62705236,-0.7678576112,-1.066265345,1.412320495
31.63705236,-0.644615531,-0.9859365225,1.743256688
31.64705236,-0.6459900141,-0.7166976333,2.056019783
31.65705236,-0.6664539576,-0.5183191895,2.289064884
31.66705236,-0.6279694438,-0.444709897,2.356565475
31.67705236,-0.2945897579,-0.7608326674,1.866040587
31.68705236,-0.1383609772,-0.6991352439,1.453401089
31.69705236,-0.1153008118,-0.236099422,1.140943527
31.70705236,-0.09865473956,0.2660318017,1.049619198
31.71705236,0.1203404516,0.3349068761,1.008080363
31.72705236,1.229977131,0.2214386463,0.6795876026
31.73705236,1.943009615,0.6974554062,0.4929682612
31.74705236,2.477822065,1.640173197,0.4555527568
31.75705236,2.867248774,2.530509233,0.5122104883
31.76705236,3.206584454,2.938414574,0.5919284225
31.77705236,3.582113743,2.757292986,0.8820894361
31.78705236,3.733761072,2.126116514,0.8918632865
31.79705236,3.927405357,1.365741968,0.881325841
31.80705236,4.109443188,1.002735257,0.8521569967
31.81705236,4.205196381,1.110705733,0.7841982841
31.82705236,3.965279102,2.032654047,0.3220787048
31.83705236,3.203835487,2.614045143,0.2886338234
31.84705236,1.868025899,2.623208046,0.3972151279
31.85705236,0.433103472,1.79059875,0.4013384581
31.86705236,-0.5879577994,0.8399397135,0.2648100853
31.87705236,-1.001666307,0.7108944058,0.1525636017
31.88705236,-0.7962628603,1.116508961,-0.08368854225
31.89705236,-0.709061861,1.213025689,-0.2919935882
31.90705236,-0.653167665,1.252426505,-0.4421137273
31.91705236,-0.6702718735,1.250135779,-0.5091561675
31.92705236,-0.7997753024,1.29808867,-0.5734497309
31.93705236,-1.235780358,1.292590857,-0.8706356883
31.94705236,-1.545947194,1.244637966,-1.030224204
31.95705236,-1.951408982,1.13559854,-1.198670268
31.96705236,-2.355648994,0.9289733171,-1.402852058
31.97705236,-2.677269697,0.5687155724,-1.631315589
31.98705236,-3.162754774,0.3642283976,-2.196824074
31.99705236,-3.290272951,0.5494732857,-2.476447821
32.00705236,-3.081815243,-0.1174388453,-2.725680828
32.01705236,-2.881909609,-0.7965682745,-2.990948915
32.02705236,-2.905733347,-0.5270239711,-3.231171608
32.03705236,-2.610990763,1.831068516,-3.194672585
32.04705236,-2.163379192,2.703384161,-2.6755898
32.05705236,-1.881770372,3.280040979,-1.934304833
32.06705236,-1.747532725,3.378237486,-1.492191076
32.07705236,-1.718363881,2.961932898,-1.327104688
32.08705236,-2.039831877,1.721876383,-0.9376781583
32.09705236,-2.184759617,1.521054506,-0.6357579827
32.10705236,-1.981799603,1.616960287,-0.2742784917
32.11705236,-1.652543187,1.598787069,-0.3335324228
32.12705236,-1.333518863,1.828014255,-0.5732970238
32.13705236,-0.6282749176,1.667967558,-0.5864306092
32.14705236,-0.5377141237,1.250288486,-0.4728097022
32.15705236,-0.5671883821,0.9191994667,-0.2803871334
32.16705236,-0.6084218025,0.6640105247,-0.09743300825
32.17705236,-0.5270239711,0.405461818,0.03405573592
32.18705236,-0.3882048726,0.3005456924,0.2054034323
32.19705236,-0.01053742506,0.1466076523,0.6411030889
32.20705236,0.1580613852,0.1226311997,0.8787296414
32.21705236,0.2648100853,0.2608394623,1.147815824
32.22705236,0.3552181423,0.5435173512,1.427439332
32.23705236,0.428521961,0.8249735236,1.657124639
32.24705236,0.3940080702,0.9534079432,1.873981833
32.25705236,0.4053090811,0.9292787313,1.811673641
32.26705236,0.4934264123,0.8271115422,1.630246639
32.27705236,0.681420207,0.7964155674,1.341612816
32.28705236,0.8177958727,0.8880453706,1.03297317
32.29705236,0.9158397317,1.316261888,0.2538145185
32.30705236,0.8382598162,1.747380018,-0.2429716438
32.31705236,0.5878050923,2.402533054,-0.633467257
32.32705236,0.4494441152,2.809980154,-0.7628179789
32.33705236,0.3773620129,3.003166199,-0.8177958727
32.34705236,0.3912591934,2.842661381,-0.9957103729
32.35705236,0.5256495476,2.115120888,-1.056033254
32.36705236,0.8575021029,0.850477159,-0.9509644508
32.37705236,1.143692493,-0.2805398703,-0.7086036801
32.38705236,0.2881756723,0.4902193546,-0.5760459304
32.39705236,-1.530828357,3.069445133,0.0293215327
32.40705236,-1.470658064,2.542115688,0.6160575747
32.41705236,-1.242958069,1.285871387,1.174235702
32.42705236,-1.303433776,0.3155119121,1.412014961
32.43705236,-1.365436554,-0.06658431143,1.661553502
32.44705236,-1.302212,-0.2231185287,1.943925977
32.45705236,-1.210124016,-0.6551529765,2.21606636
32.46705236,-1.13926363,-0.8478809595,2.172236919
32.47705236,-0.8512406945,-0.9332493544,2.021047592
32.48705236,-0.4225660264,-0.8368853927,1.845118523
32.49705236,-0.1039998084,-0.6771441102,1.747685432
32.50705236,0.3306308091,-0.6757696867,1.705535769
32.51705236,0.7782423496,-0.5203045011,1.537089705
32.52705236,1.41873455,-0.2742784917,1.359022498
32.53705236,2.093740702,0.08552113175,1.284191489
32.54705236,2.719724894,0.4480696619,1.256855249
32.55705236,3.590207815,0.897819221,1.27487576
32.56705236,3.884186745,1.412473202,1.200197458
32.57705236,4.193437099,1.639867783,1.064279914
32.58705236,4.479321957,1.874287248,0.9416487813
32.59705236,4.701524258,1.873218298,0.8888089061
32.60705236,4.78597641,0.4344778955,0.7820602059
32.61705236,4.341114044,1.028086185,0.7212791443
32.62705236,2.565328598,1.40483737,0.8423831463
32.63705236,0.6009386778,0.3886630237,0.878118813
32.64705236,-0.778853178,-0.884685576,0.7028004527
32.65705236,-1.439198494,-0.8210029006,0.2817615867
32.66705236,-0.8797986507,-0.2322815061,0.02764165215
32.67705236,-0.5184718966,0.5210680366,-0.03237585723
32.68705236,-0.3559817076,0.8208501935,-0.03588833287
32.69705236,-0.3623957932,0.8516988754,-0.07116580009
32.70705236,-0.7205155492,1.030529618,-0.09162978828
32.71705236,-1.112385631,0.8310821652,-0.0613919571
32.72705236,-1.59359467,0.3627012372,-0.1327104717
32.73705236,-1.948507428,-0.0850629881,-0.3604104817
32.74705236,-2.166586399,-0.3802636266,-0.6093381047
32.75705236,-2.356260061,-0.5555819273,-0.7724391222
32.76705236,-2.719419241,-0.590706706,-0.8988882303
32.77705236,-2.892294168,-0.5090034604,-0.9628763199
32.78705236,-3.059976816,-0.4512766898,-1.097724795
32.79705236,-3.240334749,-0.4702135324,-1.351539373
32.80705236,-3.486666203,-0.4237877727,-1.809841037
32.81705236,-3.131295204,-0.2194533348,-3.013092756
32.82705236,-2.511725187,-0.872926414,-3.518125772
32.83705236,-2.24447155,-0.5201517344,-3.826765299
32.84705236,-2.107179642,0.397367835,-3.864944458
32.85705236,-1.932777643,1.077718973,-3.707646608
32.86705236,-1.469283581,1.764484286,-2.652529716
32.87705236,-1.448514223,1.817782283,-2.035708427
32.88705236,-1.54457283,1.416901946,-1.579850197
32.89705236,-1.67972672,0.7735081315,-1.199739337
32.90705236,-1.780061364,0.3022255898,-0.8859072924
32.91705236,-1.593289256,-0.4665483236,-0.2751947939
32.92705236,-1.300379395,-0.841314137,0.01771509275
32.93705236,-0.983951211,-0.9262244105,0.04367686436
32.94705236,-0.8002334833,-0.6721044779,-0.09697485715
32.95705236,-0.7446447611,-0.4862487316,-0.3145956099
32.96705236,-0.7446447611,-0.4862487316,-0.3145956099
32.97705236,-0.2474004179,-0.5975789428,-0.263435632
32.98705236,-0.04657847434,-0.6569855809,-0.1921171248
32.99705236,0.3471241891,-0.3915646076,-0.188910082
33.00705236,0.6805039048,-0.4505131245,-0.1580613852
33.01705236,0.920879364,-1.520748973,0.2849686444
33.02705236,0.9970847964,-1.631621122,0.5564982295
33.03705236,1.075122833,-1.556331873,0.841314137
33.04705236,1.050382733,-1.41155684,1.17530477
33.05705236,0.9540187716,-1.118799686,1.474934101
33.06705236,0.8115344644,-0.7609853745,1.691944003
33.07705236,0.3793473244,-0.299323976,1.803885102
33.08705236,0.3793473244,-0.299323976,1.803885102
33.09705236,0.1882992089,-0.2356412709,1.644601941
33.10705236,-0.03207042441,-0.2167044431,1.117730737
33.11705236,-0.118049711,0.0009162978968,0.8309294581
33.12705236,-0.3634648323,1.179886222,-0.03039054573
33.13705236,-0.2576324046,1.472643375,-0.4233296216
33.14705236,-0.2307543457,1.469436288,-0.6626361012
33.15705236,-0.3139847219,1.093906879,-0.7927503586
33.16705236,-0.4182899892,0.5230533481,-0.8272642493
33.17705236,-0.8278751373,-0.543211937,-0.8310821652
33.18705236,-0.9920451641,-0.9176723361,-0.8278751373
33.19705236,-0.9469938278,-1.10001564,-0.798553586
33.20705236,-0.9450085163,-1.054047942,-0.7200574279
33.21705236,-1.307098866,-0.483805269,-0.5613851547
33.22705236,-1.796860099,-0.01893682219,-0.03069597855
33.23705236,-1.859015703,-0.1449277848,0.4448626041
33.24705236,-1.211803913,-0.5766568184,0.8918632865
33.25705236,-0.3576616049,-1.097266674,1.1598804
33.26705236,-0.002901609987,-1.286634922,1.519680023
33.27705236,0.4005748928,-1.895056725,1.972331166
33.28705236,0.4005748928,-1.895056725,1.972331166
33.29705236,1.245096087,-2.123672962,1.760819077
33.30705236,1.557706356,-1.641394973,1.407586217
33.31705236,1.669189334,-0.8542950749,0.9966266751
33.32705236,1.770592928,-0.1490511149,0.708450973
33.33705236,2.333047152,0.2764165103,0.5082398653
33.34705236,2.656652927,0.3336851299,0.5447390676
33.35705236,2.906038761,0.3297145069,0.6504187584
33.36705236,3.071583271,0.2423607856,0.8022187948
33.37705236,3.203377247,0.2078468949,0.9043859839
33.38705236,3.149926662,0.3842342496,1.043357849
33.39705236,3.037832975,0.4282165468,1.059698462
33.40705236,2.859612942,0.3219259977,1.063058257
33.41705236,2.581516504,0.1609629989,1.033431292
33.42705236,2.183690548,0.05009094998,1.004262447
33.43705236,1.114981771,-0.2368630022,1.089936256
33.44705236,0.6417139173,-0.5277875662,1.095281363
33.45705236,0.2701551616,-0.8086328506,1.033431292
33.46705236,-0.003970623948,-0.9966266751,0.9841039181
33.47705236,-0.2107485086,-1.076039076,0.948521018
33.48705236,-0.2524400651,-0.8553640842,0.8863654733
33.49705236,-0.2483167201,-0.6725626588,0.8799513578
33.50705236,-0.4393648207,-0.5998696685,0.8709411025
33.51705236,-0.716239512,-0.657749176,0.8014551997
33.52705236,-0.9950994849,-0.8746063113,0.6739370823
33.53705236,-1.407891631,-1.221577764,0.2649627924
33.54705236,-1.670410991,-1.36772728,0.01191187184
33.55705236,-2.011731863,-1.499063253,-0.2115120888
33.56705236,-2.397798777,-1.684155464,-0.3205515444
33.57705236,-2.725833416,-2.002263546,-0.4132503271
33.58705236,-3.138931036,-2.64153409,-0.6785185933
33.59705236,-3.267365456,-2.811201811,-0.8866708875
33.60705236,-3.373961449,-2.853351593,-1.200502872
33.61705236,-3.554166794,-2.684905529,-1.666898489
33.62705236,-3.718489408,-2.396882534,-2.199725866
33.63705236,-3.625179768,-2.089311838,-2.663372517
33.64705236,-2.202322006,-1.786628127,-3.527288675
33.65705236,-1.483639002,-1.043510556,-3.678325176
33.66705236,-1.143387079,0.2138028294,-3.320663452
33.67705236,-0.8843801618,1.266018271,-2.878396988
33.68705236,-0.7035640478,1.575879574,-2.668259382
33.69705236,-0.9156870246,0.7707592249,-2.49767518
33.70705236,-0.9334021211,0.2690861523,-2.27073884
33.71705236,-0.8480336666,-0.6647741199,-1.918269634
33.72705236,-0.7805330753,-1.774868965,-1.503186703
33.73705236,-0.5566509366,-2.478891134,-1.214247346
33.74705236,-0.4628831446,-3.149621248,-0.5648976564
33.75705236,-0.3049744666,-3.109151363,-0.4697553813
33.76705236,-0.03848451003,-2.884811163,-0.5813909769
33.77705236,0.1591303945,-2.899013758,-0.7270823717
33.78705236,0.255188942,-3.03401494,-0.7461718917
33.79705236,0.3497203588,-3.480862856,-0.6656904221
33.80705236,0.4653266072,-3.610977173,-0.621555388
33.81705236,0.6134614348,-3.79729104,-0.5751296282
33.82705236,0.8016079068,-4.037971973,-0.5352706909
33.83705236,1.007011414,-4.190382957,-0.4973970354
33.84705236,1.007011414,-4.190382957,-0.4973970354
33.85705236,1.224784851,-4.425566196,-0.0960585624
33.86705236,1.166141748,-4.440837383,0.08949175477
33.87705236,1.01907599,-4.56835556,0.2513710558
33.88705236,0.8772025108,-4.623180866,0.353843689
33.89705236,0.7632761002,-4.419915676,0.3845396638
33.90705236,0.7183775306,-4.240931988,0.2988658249
33.91705236,0.7165449262,-3.855323315,0.1776090711
33.92705236,0.7509061098,-3.182607889,0.05543602258
33.93705236,0.6957755089,-2.523942471,-0.08139779419
33.94705236,0.2606867552,-1.930945039,-0.2532036304
33.95705236,-1.229060888,-1.031904101,-1.083369493
33.96705236,-1.006095052,-0.7849618196,-1.361924052
33.97705236,-0.7531968355,-0.6840163469,-1.597412586
33.98705236,-0.5980370641,-1.299157619,-1.812131763
33.99705236,-0.606436491,-1.99844563,-1.947743893
34.00705236,-0.5369505286,-3.52499795,-1.764331579
34.01705236,-0.636826992,-4.486347198,-1.488678575
34.02705236,-0.8946121335,-5.267949104,-1.200655699
34.03705236,-1.304197311,-5.519778252,-0.8497135639
34.04705236,-1.948965549,-4.794986725,-0.4124867618
34.05705236,-1.753641367,-4.32339859,0.04871650413
34.06705236,-0.9156870246,-4.843550682,0.02489275858
34.07705236,0.1608102769,-4.93869257,-0.123852931
34.08705236,0.1608102769,-4.93869257,-0.123852931
34.09705236,2.061975718,-3.180622578,-0.2947424948
34.10705236,2.953075409,-0.9964739084,0.04138612002
34.11705236,2.738356113,0.1331686229,0.1808161139
34.12705236,2.168571711,0.5949827433,0.1941024363
34.13705236,1.698663473,-0.0109955743,-0.01466076635
34.14705236,1.416749239,-0.9778425694,-0.2159408629
34.15705236,1.416749239,-0.9778425694,-0.2159408629
34.16705236,1.391703725,-2.159103155,0.04764748737
34.17705236,1.617723942,-2.157576084,0.2510656118
34.18705236,1.908495784,-2.016771555,0.405156374
34.19705236,2.156659842,-1.67713058,0.4700607955
34.20705236,2.258826971,-1.358869791,0.5424483418
34.21705236,1.973552942,-1.200044751,0.6963863969
34.22705236,1.605659246,-1.247234106,0.7284567952
34.23705236,1.184314966,-1.33886385,0.7322747111
34.24705236,0.7884743214,-1.409113407,0.6618725061
34.25705236,0.4257730842,-1.48577702,0.5167919993
34.26705236,-0.1235474944,-1.56885469,0.2718350291
34.27705236,-0.2466368377,-1.538464069,0.247858569
34.28705236,-0.2875648141,-1.616196752,0.2780964077
34.29705236,-0.2997821271,-1.728290439,0.3310889602
34.30705236,-0.3417791128,-1.917964101,0.4034765065
34.31705236,-0.676227808,-2.223396778,0.4256203473
34.32705236,-1.025184631,-2.190257311,0.3872885704
34.33705236,-1.463785887,-2.058615923,0.3338378668
34.34705236,-1.861611843,-2.062586546,0.2722931802
34.35705236,-2.145511389,-2.269058943,0.220369637
34.36705236,-2.334574223,-3.175430298,0.137597397
34.37705236,-2.390621185,-3.673896313,0.1192714423
34.38705236,-2.467590094,-4.389219284,0.1191187203
34.39705236,-2.610990763,-5.197394371,0.08704829961
34.40705236,-2.751489878,-5.724265575,-0.02061670274
34.41705236,-2.999348402,-5.315291405,-0.4317290187
34.42705236,-3.040887117,-4.900208473,-0.8445212245
34.43705236,-3.016757965,-4.448167801,-1.396438003
34.44705236,-2.720641136,-3.602730513,-2.054034472
34.45705236,-2.004707098,-2.626567841,-2.659249067
34.46705236,-0.6904304624,0.03466660157,-2.61786294
34.47705236,-0.1076650023,1.115592599,-2.265241146
34.48705236,0.04184427112,1.607339144,-1.999056458
34.49705236,-0.432492584,0.9579893947,-2.123825788
34.50705236,-1.06855607,0.05283984542,-2.235003233
34.51705236,-1.538311362,-0.5586362481,-2.321746111
34.52705236,-1.418581843,-1.152855396,-1.746463776
34.53705236,-0.9842566252,-1.326646566,-1.375821233
34.54705236,-0.5697845817,-1.607339144,-1.214400053
34.55705236,-0.3798054755,-2.015244484,-1.118036151
34.56705236,-0.4221078753,-2.525316954,-0.9560040832
34.57705236,-0.231976077,-2.517681122,-1.073442936
34.58705236,-0.1606575549,-2.529287577,-1.058934927
34.59705236,-0.1606575549,-2.529287577,-1.058934927
34.60705236,-0.01771509275,-2.56731391,-1.004415154
34.61705236,0.3559817076,-2.724611759,-1.056033254
34.62705236,0.7968736887,-3.082426071,-1.116050839
34.63705236,1.042136073,-3.273015976,-1.152855396
34.64705236,1.203862667,-3.353802919,-1.068250656
34.65705236,1.287551165,-3.367089272,-0.9341656566
34.66705236,1.236849427,-3.428939342,-0.7133378983
34.67705236,0.9853256345,-3.633884668,-0.102472648
34.68705236,0.8457429409,-3.774230957,0.1510364264
34.69705236,0.7365507483,-3.766595125,0.3220787048
34.70705236,0.638048768,-3.618613005,0.40485093
34.71705236,0.5650503635,-3.463605881,0.4033237696
34.72705236,0.6195700765,-3.06807065,0.1551597714
34.73705236,0.6278167367,-2.814561605,-0.0009162978968
34.74705236,0.5761986375,-2.481945515,-0.1430951804
34.75705236,0.4815145433,-2.029752493,-0.3237585723
34.76705236,0.1418734491,-1.294881582,-0.6572909951
34.77705236,-0.3593414724,0.03298672289,-1.418429136
34.78705236,-0.1441642046,-0.1098030284,-1.563662291
34.79705236,-0.0190895386,-0.445015341,-1.660942554
34.80705236,-0.0971275717,-0.7333437204,-1.764789701
34.81705236,-0.1947132945,-1.011134744,-1.839468002
34.82705236,-0.4135557711,-1.206153393,-1.627650499
34.83705236,-0.3764457107,-2.327243805,-1.014799833
34.84705236,-0.7848091125,-2.112524748,-0.5233588219
34.85705236,-1.37185061,-1.372614264,0.1640173197
34.86705236,-1.798081875,-0.6453791261,0.8400924206
34.87705236,-1.583668113,-0.908967495,1.252121091
34.88705236,-0.4648684561,-2.892752409,0.8428413272
34.89705236,0.01221730467,-3.066390753,0.8446739316
34.90705236,0.6009386778,-2.665663242,0.9300423265
34.91705236,1.179580808,-2.019215107,0.9155342579
34.92705236,1.634828091,-1.435991526,0.8177958727
34.93705236,2.108095884,-0.6082690954,0.4098905921
34.94705236,2.118175268,-0.4297437072,0.08368854225
34.95705236,2.123672962,-0.3749185503,-0.08933904022
34.96705236,2.219731569,-0.2901609838,-0.122020334
34.97705236,2.358856201,-0.2032654136,-0.04612032697
34.98705236,2.576629639,-0.0109955743,0.208457768
34.99705236,2.613434315,0.004581489135,0.3220787048
35.00705236,2.645504713,0.1035416573,0.4616613984
35.01705236,2.72048831,0.2212859392,0.6001750827
35.02705236,2.77561903,0.3475823104,0.7179193497
35.03705236,2.642755747,0.6029239893,0.8135197759
35.04705236,2.457205534,0.6275113225,0.8762862086
35.05705236,2.201711178,0.6453791261,0.9109528065
35.06705236,1.873981833,0.5129740834,0.924239099
35.07705236,1.488525867,0.1669189334,0.87414819
35.08705236,0.9353874326,0.09804387391,0.6782131195
35.09705236,0.853836894,0.4871650338,0.6585127115
35.10705236,0.6119342446,0.605825603,0.64980793
35.11705236,0.2269364446,0.4350887835,0.6177374721
35.12705236,-0.125990957,0.1542434692,0.5887213945
35.13705236,-0.3842342496,-0.1522581577,0.5192354321
35.14705236,-0.6427829266,-0.5648976564,0.1340849251
35.15705236,-0.8235990405,-0.6600399017,-0.104152523
35.16705236,-1.091768861,-0.7389942408,-0.31047225
35.17705236,-1.331380844,-0.9564622641,-0.4857905805
35.18705236,-1.554652095,-1.211803913,-0.6563746929
35.19705236,-2.0051651,-1.464244008,-0.9097310901
35.20705236,-2.33106184,-1.417054653,-1.015105367
35.21705236,-2.738661528,-1.438129544,-1.125671983
35.22705236,-3.090519905,-1.713324308,-1.260825872
35.23705236,-3.296381474,-2.10473609,-1.405295491
35.24705236,-3.424510479,-2.295020819,-1.61986196
35.25705236,-3.526067019,-2.120924234,-1.805412173
35.26705236,-3.630372047,-1.79884541,-2.188119411
35.27705236,-3.320968866,-1.153771758,-2.685668945
35.28705236,-2.853962421,0.3619376719,-3.16550374
35.29705236,-1.638340592,3.401144981,-3.175735712
35.30705236,-1.107651353,3.169474363,-2.782338381
35.31705236,-1.054506183,2.143526077,-2.474156857
35.32705236,-1.338405728,1.375821233,-2.344653606
35.33705236,-1.669189334,1.091768861,-2.193006277
35.34705236,-1.654528499,0.03588833287,-1.218523502
35.35705236,-1.706910253,-0.7745771408,-0.8906415105
35.36705236,-1.50746274,-0.8193230033,-0.8008443117
35.37705236,-1.334282398,-0.4983133376,-1.081536889
35.38705236,-1.259298682,-0.1895209402,-1.342376351
35.39705236,-0.9964739084,-0.09071348608,-1.409418821
35.40705236,-0.2025018334,-0.3642283976,-0.9092729092
35.41705236,0.1902845204,-0.4495968223,-0.6357579827
35.42705236,0.6110179424,-0.5102251768,-0.5757405162
35.43705236,0.9395107627,-0.3439171314,-0.5169447064
35.44705236,1.090852618,-0.3688098788,-0.3610213697
35.45705236,1.033278584,-0.6969972253,0.1061378345
35.46705236,1.082300544,-0.6672175527,0.3613267839
35.47705236,1.242805362,-0.5170974135,0.5937610269
35.48705236,1.429577351,-0.3914119005,0.8298604488
35.49705236,1.577254057,-0.3077233732,1.061989188
35.50705236,1.566869378,-0.1105666086,1.54151845
35.51705236,1.356578946,-0.1716531366,1.74783814
35.52705236,1.085354805,-0.2979495227,1.872149229
35.53705236,0.8043568134,-0.4276056588,1.895209432
35.54705236,0.5763513446,-0.567035675,1.828930497
35.55705236,0.4726569951,-0.8788823485,1.481959105
35.56705236,0.5241223574,-0.9949467778,1.312749386
35.57705236,0.6065891981,-1.028544307,1.122006774
35.58705236,0.7200574279,-0.9708175659,0.8901833892
35.59705236,0.8248208165,-0.8040513992,0.6382014751
35.60705236,0.7541131377,0.1305724531,-0.01221730467
35.61705236,-0.09743300825,1.639104128,-0.4812090993
35.62705236,-0.8321511745,3.234225988,-0.8755226135
35.63705236,-0.6110179424,3.680310488,-0.8417723179
35.64705236,-0.08139779419,3.640756845,-0.8257371187
35.65705236,1.273959517,1.732566595,-0.8981246352
35.66705236,0.9385944605,1.049771905,-1.136820197
35.67705236,-0.2125810981,1.566869378,-1.169959664
35.68705236,-0.578183949,2.26554656,-0.5516113043
35.69705236,-0.6933320761,2.510808945,0.2959642112
35.70705236,-0.817643106,1.794416666,1.006553173
35.71705236,-0.003359758761,-1.223410368,1.871538401
35.72705236,0.248164013,-2.203238249,2.20522356
35.73705236,0.3019201458,-2.504700184,2.484389067
35.74705236,0.4092797041,-2.326174736,2.579072952
35.75705236,0.6748533845,-1.799303532,2.484999895
35.76705236,1.201266527,-0.8875871897,2.08610487
35.77705236,1.376126647,-0.7423539758,1.6740762
35.78705236,1.537853241,-0.6264423132,1.218981624
35.79705236,1.59099853,-0.3298672438,0.8836165667
35.80705236,1.572672606,-0.1241583601,0.6832527518
35.81705236,1.888337135,-0.1560760736,0.4531092942
35.82705236,2.143373489,-0.008857546374,0.4851797223
35.83705236,2.335032463,0.3243694305,0.484110713
35.84705236,2.548682451,0.5484042764,0.5155702829
35.85705236,2.708118439,0.6849326491,0.5439754725
35.86705236,2.75500226,0.4214970171,0.3874412775
35.87705236,2.754696846,-0.005955935922,0.2997821271
35.88705236,2.792264938,-0.3046690524,0.2956587672
35.89705236,2.902831554,-0.1908953935,0.3399465084
35.90705236,3.020270586,0.1795943826,0.3185662329
35.91705236,2.105805159,0.9436340928,0.204639852
35.92705236,0.9448558092,0.7809911966,0.2411390543
35.93705236,-0.1287398487,0.1545489132,0.3214678466
35.94705236,-0.7029531598,-0.2128865421,0.4193589985
35.95705236,-0.7367035151,-0.2614503205,0.4825835526
35.96705236,-0.7367035151,-0.2614503205,0.4825835526
35.97705236,-0.5745187402,-0.1705841124,0.3338378668
35.98705236,-0.6516404748,-0.3126102984,0.1537853181
35.99705236,-0.8491026759,-0.4702135324,-0.1067487001
36.00705236,-1.078482628,-0.499535054,-0.3628539443
36.01705236,-1.375515819,-0.5210680366,-0.6212499738
36.02705236,-1.985617518,-0.5540547967,-0.9732610583
36.03705236,-2.243249893,-0.6913467646,-1.030835152
36.04705236,-2.527760267,-0.9541715384,-1.089172721
36.05705236,-2.784018278,-1.217607141,-1.165836334
36.06705236,-2.977051735,-1.426370382,-1.283886075
36.07705236,-3.326619387,-1.259756804,-1.732872009
36.08705236,-3.265685558,-1.1242975,-2.16551733
36.09705236,-2.819601297,-1.531133771,-2.617710352
36.10705236,-2.452471256,-1.445307136,-2.997668505
36.11705236,-2.300365686,-0.5340489149,-3.20169735
36.12705236,-1.857488513,1.649947047,-3.056464195
36.13705236,-1.660331726,2.082592249,-2.426967621
36.14705236,-1.814422488,2.16551733,-1.784184694
36.15705236,-1.954921484,1.904219627,-1.371545196
36.16705236,-1.979966998,1.064279914,-1.178206325
36.17705236,-2.058768511,-1.162629247,-0.7968736887
36.18705236,-2.01799345,-1.507768154,-0.6010913849
36.19705236,-1.757153869,-1.321912408,-0.4344778955
36.20705236,-1.342376351,-0.7397578359,-0.4589125216
36.21705236,-0.9981538057,-0.1134682223,-0.6233879924
36.22705236,-0.6724098921,0.3089450896,-0.5386304259
36.23705236,-0.5374087095,-0.1282816976,-0.3568980098
36.24705236,-0.3234531581,-0.3649919927,-0.1229366288
36.25705236,-0.02275473066,-0.4648684561,-0.08735372871
36.26705236,0.3527746797,-0.3397938013,-0.2228130996
36.27705236,0.7113525867,-0.240070045,-0.2388483137
36.28705236,1.121395826,-0.5485569835,0.2532036304
36.29705236,1.149648428,-0.7499898076,0.6183483601
36.30705236,1.18721664,-0.5784893632,0.9268352985
36.31705236,1.253037333,-0.1661553532,1.202488184
36.32705236,1.241583586,0.108123146,1.450499535
36.33705236,0.877507925,0.295047909,1.745089293
