"Time (s)","Acceleration x (m/s^2)","Acceleration y (m/s^2)","Acceleration z (m/s^2)"
2.971902700E-2,-2.903690338E0,-9.379266739E0,2.067996979E0
3.595774600E-2,-2.961117983E0,-9.229117393E0,1.800599098E0
4.595774600E-2,-2.923431158E0,-9.113064766E0,1.633699656E0
5.595774600E-2,-2.894717216E0,-9.007781029E0,1.596012712E0
6.595774600E-2,-2.880360365E0,-8.969495773E0,1.639681697E0
7.595774600E-2,-2.837289333E0,-8.965308189E0,1.725823283E0
8.595774600E-2,-2.818146944E0,-9.099306107E0,1.739582062E0
9.595774600E-2,-2.784647465E0,-9.219545364E0,1.791625977E0
1.059577460E-1,-2.808575630E0,-9.242876053E0,1.690529227E0
1.159577460E-1,-2.827718258E0,-9.256634712E0,1.647458434E0
1.259577460E-1,-2.837289333E0,-9.262018204E0,1.671386600E0
1.359577460E-1,-2.837289333E0,-9.238089561E0,1.728814363E0
1.459577460E-1,-2.851646423E0,-9.123832703E0,1.767697692E0
1.559577460E-1,-2.846860647E0,-9.133403778E0,1.782054663E0
1.659577460E-1,-2.813361168E0,-9.142974854E0,1.772483349E0
1.759577460E-1,-2.746362209E0,-9.157332420E0,1.816152334E0
1.859577460E-1,-2.702693224E0,-9.209974289E0,1.858624935E0
1.959577460E-1,-2.760719061E0,-9.339186668E0,1.771885157E0
2.059577460E-1,-2.760719061E0,-9.339186668E0,1.771885157E0
2.159577460E-1,-2.812762976E0,-9.325428009E0,1.862812400E0
2.259577460E-1,-2.812762976E0,-9.281759262E0,1.843669891E0
2.359577460E-1,-2.822334290E0,-9.238688469E0,1.800599098E0
2.459577460E-1,-2.832503796E0,-9.180662155E0,1.671984792E0
2.559577460E-1,-2.746362209E0,-9.137591362E0,1.686939955E0
2.659577460E-1,-2.741576433E0,-9.132805824E0,1.763510346E0
2.759577460E-1,-2.808575630E0,-9.151350021E0,1.662413478E0
2.859577460E-1,-2.799004316E0,-9.155537605E0,1.561915040E0
2.959577460E-1,-2.650649309E0,-9.208778381E0,1.619940877E0
3.059577460E-1,-2.674577475E0,-9.233304024E0,1.767697692E0
3.159577460E-1,-2.688336134E0,-9.267401695E0,1.844268084E0
3.259577460E-1,-2.736790895E0,-9.281160355E0,1.762313843E0
3.359577460E-1,-2.736790895E0,-9.237491608E0,1.671984792E0
3.459577460E-1,-2.727219582E0,-9.203991890E0,1.633699656E0
3.559577460E-1,-2.636292458E0,-9.304491043E0,1.619342685E0
3.659577460E-1,-2.559721947E0,-9.434301376E0,1.709671736E0
3.759577460E-1,-2.602792740E0,-9.491728783E0,1.704287887E0
3.859577460E-1,-2.751147747E0,-9.510273933E0,1.641476393E0
3.959577460E-1,-2.779861689E0,-9.404989243E0,1.608574986E0
4.059577460E-1,-2.722434044E0,-9.155537605E0,1.572084427E0
4.159577460E-1,-2.722434044E0,-9.132207870E0,1.591227055E0
4.259577460E-1,-2.775076151E0,-9.117850304E0,1.639083505E0
4.359577460E-1,-2.866003275E0,-9.151350021E0,1.590628862E0
4.459577460E-1,-2.832503796E0,-9.213563919E0,1.570888042E0
4.559577460E-1,-2.818146944E0,-9.309276581E0,1.579861164E0
4.659577460E-1,-2.775076151E0,-9.290133476E0,1.623530149E0
4.759577460E-1,-2.760719061E0,-9.290732384E0,1.709671736E0
4.859577460E-1,-2.736790895E0,-9.267401695E0,1.805982947E0
4.959577460E-1,-2.746362209E0,-9.242876053E0,1.753340840E0
5.059577460E-1,-2.741576433E0,-9.271589279E0,1.738385677E0
5.159577460E-1,-2.746362209E0,-9.285946846E0,1.714457393E0
5.259577460E-1,-2.779861689E0,-9.271589279E0,1.676172256E0
5.359577460E-1,-2.813361168E0,-9.237491608E0,1.647458434E0
5.459577460E-1,-2.846860647E0,-9.189635277E0,1.628913999E0
5.559577460E-1,-2.837289333E0,-9.151947975E0,1.695913076E0
5.659577460E-1,-2.818146944E0,-9.123234749E0,1.730010748E0
5.759577460E-1,-2.770290375E0,-9.156734467E0,1.748555183E0
5.859577460E-1,-2.755933523E0,-9.228518486E0,1.710269928E0
5.959577460E-1,-2.765504837E0,-9.242277145E0,1.648056626E0
6.059577460E-1,-2.736790895E0,-9.237491608E0,1.609771490E0
6.159577460E-1,-2.717648268E0,-9.227920532E0,1.600200176E0
6.259577460E-1,-2.693720102E0,-9.261420250E0,1.638485312E0
6.359577460E-1,-2.684148788E0,-9.299705505E0,1.652244091E0
6.459577460E-1,-2.703291416E0,-9.328418732E0,1.637887120E0
6.559577460E-1,-2.760719061E0,-9.314062119E0,1.594816327E0
6.659577460E-1,-2.803789854E0,-9.266205788E0,1.623530149E0
6.759577460E-1,-2.813361168E0,-9.266205788E0,1.599601984E0
6.859577460E-1,-2.842075109E0,-9.279964447E0,1.537388563E0
6.959577460E-1,-2.856431961E0,-9.308079720E0,1.450648785E0
7.059577460E-1,-2.827718258E0,-9.308678627E0,1.488933921E0
7.159577460E-1,-2.775076151E0,-9.222537041E0,1.537986755E0
7.259577460E-1,-2.746960402E0,-9.183652878E0,1.480558991E0
7.359577460E-1,-2.713460922E0,-9.178867340E0,1.437488198E0
7.459577460E-1,-2.756531715E0,-9.062217712E0,1.194018483E0
7.559577460E-1,-2.752344131E0,-9.095717430E0,1.155733347E0
7.659577460E-1,-2.631506681E0,-9.439684868E0,1.809572101E0
7.759577460E-1,-2.697907448E0,-9.655637741E0,1.942373753E0
7.859577460E-1,-2.708076954E0,-9.573084831E0,1.717448473E0
7.959577460E-1,-2.742174864E0,-9.418149948E0,1.402792215E0
8.059577460E-1,-2.780459881E0,-9.292527199E0,1.197009563E0
8.159577460E-1,-2.813959360E0,-9.269196510E0,1.360319614E0
8.259577460E-1,-2.846860647E0,-9.274580956E0,1.450648785E0
8.359577460E-1,-2.861217737E0,-9.256035805E0,1.503889084E0
8.459577460E-1,-2.952144861E0,-9.269794464E0,1.426720500E0
8.559577460E-1,-3.000599623E0,-9.254839897E0,1.311864972E0
8.659577460E-1,-3.067598581E0,-8.980861664E0,1.068993568E0
8.759577460E-1,-2.900100946E0,-9.211769104E0,1.307677627E0
8.859577460E-1,-3.014358282E0,-9.202795982E0,1.369292736E0
8.959577460E-1,-3.047857761E0,-9.341579437E0,1.353739381E0
9.059577460E-1,-2.956930637E0,-9.380462646E0,1.478764415E0
9.159577460E-1,-2.833101988E0,-9.436694145E0,1.325623751E0
9.259577460E-1,-2.742174864E0,-9.445667267E0,1.225125194E0
9.359577460E-1,-2.627319336E0,-9.469595909E0,1.264008522E0
9.459577460E-1,-2.536391973E0,-9.455837250E0,1.402792215E0
9.559577460E-1,-2.469393015E0,-9.422935486E0,1.475175142E0
9.659577460E-1,-2.455035925E0,-9.384650230E0,1.509272933E0
9.759577460E-1,-2.334796667E0,-9.385847092E0,1.691725612E0
9.859577460E-1,-2.339582443E0,-9.419944763E0,1.801795483E0
9.959577460E-1,-2.377867460E0,-9.449256897E0,1.901695848E0
1.005957746E0,-2.415554523E0,-9.368498802E0,1.993221283E0
1.015957746E0,-2.526222467E0,-9.210572243E0,1.922034740E0
1.025957746E0,-2.674577475E0,-9.017950058E0,1.702493310E0
1.035957746E0,-2.655434847E0,-8.980263710E0,1.793420553E0
1.045957746E0,-2.631506681E0,-8.908478737E0,1.798804402E0
1.055957746E0,-2.650649309E0,-8.816354752E0,1.651047587E0
1.065957746E0,-2.608176708E0,-8.743971825E0,1.599003673E0
1.075957746E0,-2.254039049E0,-8.620143890E0,1.706082582E0
1.085957746E0,-1.986042738E0,-8.438887596E0,1.794616938E0
1.095957746E0,-1.947757602E0,-8.142775536E0,1.883151412E0
1.105957746E0,-1.957927108E0,-7.764709473E0,1.890329838E0
1.115957746E0,-1.919641972E0,-7.324429989E0,1.974676847E0
1.125957746E0,-1.933998942E0,-6.464210510E0,2.171486616E0
1.135957746E0,-1.805384636E0,-5.908477306E0,2.099103689E0
1.145957746E0,-1.609173179E0,-5.702096462E0,2.000399828E0
1.155957746E0,-1.389033556E0,-6.022734642E0,2.061416626E0
1.165957746E0,-1.345364571E0,-6.789634228E0,2.171486616E0
1.175957746E0,-2.411366940E0,-7.121638298E0,2.318645239E0
1.185957746E0,-1.998006940E0,-6.628716946E0,3.946362734E0
1.195957746E0,-2.068595171E0,-6.598806858E0,4.439882278E0
1.205957746E0,-2.498705149E0,-6.527620316E0,4.539184570E0
1.215957746E0,-3.006581545E0,-6.175875187E0,4.070191383E0
1.225957746E0,-2.491526604E0,-5.137988567E0,3.523431301E0
1.235957746E0,-1.754537225E0,-4.983651161E0,4.188037872E0
1.245957746E0,-1.179063320E0,-5.097908497E0,4.850251675E0
1.255957746E0,-1.012163997E0,-5.527420521E0,4.756931305E0
1.265957746E0,-1.031306505E0,-6.042475224E0,4.394418716E0
1.275957746E0,-1.285543919E0,-6.580860615E0,4.007379532E0
1.285957746E0,-2.512463808E0,-7.697710514E0,4.857429981E0
1.295957746E0,-3.060420275E0,-7.503293514E0,5.871388435E0
1.305957746E0,-3.290131092E0,-7.140780926E0,6.045466423E0
1.315957746E0,-3.110669374E0,-6.897311211E0,4.663611412E0
1.325957746E0,-2.486740828E0,-6.786643028E0,3.105883837E0
1.335957746E0,-1.534995675E0,-6.714260101E0,3.138785124E0
1.345957746E0,-1.749751568E0,-6.856633186E0,3.682554007E0
1.355957746E0,-1.865803480E0,-7.150950432E0,5.571687698E0
1.365957746E0,-1.296311617E0,-7.250252724E0,8.456234932E0
1.375957746E0,-1.492523074E0,-6.848856449E0,8.491529465E0
1.385957746E0,-2.070389748E0,-6.321238995E0,9.043074608E0
1.395957746E0,-2.101496458E0,-6.058028698E0,1.051944637E1
1.405957746E0,-2.593819857E0,-5.816353798E0,1.083529949E1
1.415957746E0,-3.564707518E0,-6.226722717E0,1.053200912E1
1.425957746E0,-4.402195454E0,-7.232904434E0,9.799206734E0
1.435957746E0,-5.286941528E0,-8.653044701E0,9.485149384E0
1.445957746E0,-5.023132801E0,-9.028120041E0,9.838089943E0
1.455957746E0,-4.263411522E0,-8.986844063E0,9.501300812E0
1.465957746E0,-3.574877024E0,-9.292527199E0,9.454640388E0
1.475957746E0,-2.810968399E0,-9.437891006E0,1.138624668E1
1.485957746E0,-1.462612867E0,-9.098708153E0,1.160877895E1
1.495957746E0,-1.056431174E0,-8.577073097E0,1.165663528E1
1.505957746E0,-8.943174481E-1,-7.395018578E0,1.174636650E1
1.515957746E0,-7.561319470E-1,-6.976274490E0,1.138564873E1
1.525957746E0,-1.053440213E0,-6.801000118E0,1.081615639E1
1.535957746E0,-1.207777262E0,-6.194419384E0,1.030169964E1
1.545957746E0,-1.071984529E0,-5.120042324E0,9.122037888E0
1.555957746E0,-9.906286001E-1,-4.840680122E0,8.908478737E0
1.565957746E0,-8.572286963E-1,-4.834099770E0,8.660223007E0
1.575957746E0,-8.195417523E-1,-4.951946259E0,8.352746010E0
1.585957746E0,-8.344969153E-1,-5.017749310E0,8.117650986E0
1.595957746E0,-1.164706469E0,-4.643272400E0,7.932207108E0
1.605957746E0,-1.546959877E0,-4.343571186E0,8.129016876E0
1.615957746E0,-1.925025821E0,-4.219742775E0,8.152346611E0
1.625957746E0,-1.587039590E0,-4.256831646E0,7.296314240E0
1.635957746E0,-1.129412293E0,-4.131208420E0,6.431907177E0
1.645957746E0,-1.098903775E0,-3.059223652E0,7.899305820E0
1.655957746E0,-8.560323119E-1,-3.522833109E0,7.064210415E0
1.665957746E0,-3.589234054E-1,-3.697509289E0,6.820741177E0
1.675957746E0,-5.742774159E-2,-3.503690481E0,7.215556622E0
1.685957746E0,-6.873382926E-1,-3.168695450E0,7.890930653E0
1.695957746E0,-6.867401004E-1,-2.569293261E0,8.425726891E0
1.705957746E0,-7.567301393E-1,-1.181456208E0,9.942776680E0
1.715957746E0,-1.156331539E0,-2.158924341E0,1.086879826E1
1.725957746E0,-1.265803218E0,-2.318047047E0,1.101595688E1
1.735957746E0,-1.099501967E0,-1.807777524E0,1.059362411E1
1.745957746E0,1.968096644E-1,-8.536394835E-1,1.127019501E1
1.755957746E0,5.736792088E-1,-2.476571500E-1,1.083529949E1
1.765957746E0,6.634100676E-1,7.178468257E-2,1.023410225E1
1.775957746E0,5.730810165E-1,-5.599204898E-1,1.024427223E1
1.785957746E0,3.726821244E-1,-1.255633712E0,1.049731255E1
1.795957746E0,1.064806059E-1,2.733799815E-1,1.163629627E1
1.805957746E0,1.698904037E-1,7.782655358E-1,1.272682571E1
1.815957746E0,2.189432681E-1,7.220342159E-1,1.332503128E1
1.825957746E0,4.707878530E-1,1.022931710E-1,1.227817154E1
1.835957746E0,5.306084156E-1,-6.197410822E-1,1.067438221E1
1.845957746E0,1.764706671E-1,-4.127618968E-1,1.039202881E1
1.855957746E0,-5.060819983E-1,2.170290232E0,8.983852386E0
1.865957746E0,4.007977992E-2,3.006581545E0,9.987043381E0
1.875957746E0,1.324427366E0,4.095914364E0,1.195753288E1
1.885957746E0,2.353341103E0,4.733003139E0,1.278903866E1
1.895957746E0,2.961716175E0,4.243072987E0,1.319043446E1
1.905957746E0,3.005983353E0,3.105883837E0,1.062173939E1
1.915957746E0,3.229114056E0,2.794816732E0,9.902098656E0
1.925957746E0,2.965903759E0,3.068196774E0,9.725627899E0
1.935957746E0,2.994019270E0,3.619144201E0,9.647860527E0
1.945957746E0,3.447459221E0,4.554738045E0,9.354142189E0
1.955957746E0,6.256632805E0,6.464808464E0,1.115832996E1
1.965957746E0,7.895118237E0,7.017550468E0,1.327956772E1
1.975957746E0,8.292924881E0,6.838088989E0,1.364387512E1
1.985957746E0,7.229315281E0,6.399604321E0,1.249771309E1
1.995957746E0,6.190232277E0,6.008377552E0,1.145204926E1
2.005957746E0,5.112864017E0,4.566103935E0,1.004985523E1
2.015957746E0,4.983053207E0,3.909274101E0,9.427721024E0
2.025957746E0,4.933402061E0,3.188436270E0,8.379066467E0
2.035957746E0,4.354339123E0,2.408375978E0,7.557730198E0
2.045957746E0,3.946362734E0,2.676372051E0,6.734001160E0
2.055957746E0,5.109872818E0,3.471387386E0,5.264209747E0
2.065957746E0,6.083751678E0,3.425923824E0,4.305285931E0
2.075957746E0,6.789036274E0,3.769293785E0,3.031706333E0
2.085957746E0,7.811369419E0,4.037888050E0,2.347358942E0
2.095957746E0,8.416155815E0,4.108476639E0,1.086341500E0
2.105957746E0,9.008378983E0,3.677768469E0,4.534398913E-1
2.115957746E0,8.676374435E0,3.637688637E0,-8.697910309E-1
2.125957746E0,8.242675781E0,4.462016106E0,-2.618346214E0
2.135957746E0,7.968697548E0,6.038886070E0,-3.007179976E0
2.145957746E0,7.844270706E0,8.483752251E0,-2.206780672E0
2.155957746E0,7.393822193E0,1.151785183E1,8.422735929E-1
2.165957746E0,5.315655708E0,1.496650696E1,1.148136139E1
2.175957746E0,5.297709465E0,1.124865913E1,8.321639061E0
2.185957746E0,6.406782627E0,1.055713367E1,5.084149837E0
2.195957746E0,7.227520943E0,1.026461124E1,6.780661106E0
2.205957746E0,7.533802032E0,8.493922234E0,9.078369141E0
2.215957746E0,4.136591911E0,4.944169998E0,9.909874916E0
2.225957746E0,2.257628202E0,3.820141315E0,9.550353050E0
2.235957746E0,1.301097274E0,2.931207657E0,9.186644554E0
2.245957746E0,9.409775138E-1,2.773281336E0,8.404191017E0
2.255957746E0,7.375875711E-1,3.318246841E0,7.013363361E0
2.265957746E0,-5.192425251E-1,4.784449100E0,4.996811867E0
2.275957746E0,-7.345965505E-1,5.282155991E0,5.003990173E0
2.285957746E0,-6.233302951E-1,5.359324455E0,5.679962635E0
2.295957746E0,8.135596663E-2,5.036891460E0,6.777669907E0
2.305957746E0,1.100698411E-1,4.923830986E0,6.546762943E0
2.315957746E0,-7.507480979E-1,5.260022163E0,3.936193228E0
2.325957746E0,-5.449653864E-1,5.494519234E0,4.039084435E0
2.335957746E0,-3.385843933E-1,5.606981754E0,4.418945312E0
2.345957746E0,1.351944804E-1,5.819344521E0,4.938786030E0
2.355957746E0,7.112665176E-1,5.971288681E0,6.005386829E0
2.365957746E0,1.574477315E0,6.000002861E0,7.569694519E0
2.375957746E0,1.890329838E0,5.860022545E0,7.823931694E0
2.385957746E0,2.063809633E0,5.497509956E0,8.411369324E0
2.395957746E0,1.935793519E0,4.923232555E0,9.111269951E0
2.405957746E0,1.745564103E0,4.299304008E0,9.403194427E0
2.415957746E0,3.299104214E0,3.676572084E0,8.969495773E0
2.425957746E0,4.320241451E0,3.966701746E0,7.883752346E0
2.435957746E0,5.136193752E0,4.424329281E0,6.769295216E0
2.445957746E0,5.636891842E0,4.691128731E0,6.202794552E0
2.455957746E0,5.823532104E0,4.503890514E0,6.364908218E0
2.465957746E0,5.930611134E0,4.307080746E0,7.168896675E0
2.475957746E0,6.555137634E0,4.449453831E0,8.943773270E0
2.485957746E0,6.866802692E0,4.689334393E0,9.712467194E0
2.495957746E0,6.891329288E0,4.806582451E0,1.006301594E1
2.505957746E0,6.422336102E0,4.937589645E0,9.769894600E0
2.515957746E0,5.641677380E0,4.792225361E0,9.148359299E0
2.525957746E0,4.459024906E0,3.932005882E0,8.008178711E0
2.535957746E0,3.966701746E0,3.510869026E0,7.936394691E0
2.545957746E0,3.665804386E0,3.156133175E0,8.053044319E0
2.555957746E0,3.613760471E0,3.211766243E0,8.306683540E0
2.565957746E0,3.614956856E0,3.433102369E0,8.901898384E0
2.575957746E0,3.156731367E0,2.889333248E0,9.294321060E0
2.585957746E0,2.887538671E0,2.539981127E0,8.453244209E0
2.595957746E0,2.603390932E0,2.313859463E0,7.109674454E0
2.605957746E0,2.386242390E0,1.832902193E0,5.985645771E0
2.615957746E0,2.385644197E0,1.271785259E0,5.435894966E0
2.625957746E0,2.237887383E0,9.936196208E-1,5.467001438E0
2.635957746E0,2.601596355E0,1.569093466E0,6.056233883E0
2.645957746E0,2.020140409E0,2.503490686E0,7.381857872E0
2.655957746E0,1.491924882E0,3.158525944E0,8.887541771E0
2.665957746E0,1.229910851E0,3.430709362E0,9.721440315E0
2.675957746E0,1.489532143E-1,2.948555708E0,9.378668785E0
2.685957746E0,-3.152543902E-1,2.429911375E0,8.799007416E0
2.695957746E0,-1.028913736E0,1.825723648E0,8.127222061E0
2.705957746E0,-2.086541414E0,1.250249863E0,7.496713161E0
2.715957746E0,-3.324826956E0,7.627122402E-1,7.182655334E0
2.725957746E0,-4.051048756E0,2.919243574E-1,7.396812916E0
2.735957746E0,-3.665206194E0,3.409772217E-1,9.543772697E0
2.745957746E0,-3.476173162E0,2.877369225E-1,1.119661522E1
2.755957746E0,-3.414557934E0,6.819544733E-2,1.330229950E1
2.765957746E0,-3.425325632E0,-1.758724600E-1,1.559881115E1
2.775957746E0,-3.230310678E0,-4.133601189E-1,1.759502220E1
2.785957746E0,-4.240081787E0,-8.105686903E-1,1.976770592E1
2.795957746E0,-5.210969448E0,-1.055832982E0,1.979582214E1
2.805957746E0,-6.321238995E0,-1.061216831E0,1.902533340E1
2.815957746E0,-7.600800991E0,-5.473581553E-1,1.775474358E1
2.825957746E0,-8.550153732E0,2.709871531E-1,1.617129326E1
2.835957746E0,-7.567301750E0,2.452643156E0,1.263111210E1
2.845957746E0,-6.872784615E0,3.096910715E0,1.074616623E1
2.855957746E0,-6.053243160E0,3.436691523E0,9.334401131E0
2.865957746E0,-5.083551884E0,3.326621771E0,8.729017258E0
2.875957746E0,-4.232903481E0,2.776272535E0,8.044071198E0
2.885957746E0,-3.104089260E0,1.904088616E0,5.380261898E0
2.895957746E0,-2.571087837E0,2.172084808E0,3.928416491E0
2.905957746E0,-2.285145521E0,2.170888424E0,3.393620729E0
2.915957746E0,-1.835294962E0,1.860419631E0,3.349951744E0
2.925957746E0,-1.844866276E0,1.515254974E0,3.414557934E0
2.935957746E0,-3.660420418E0,1.920838356E0,4.128815651E0
2.945957746E0,-2.460419893E0,1.515254974E0,4.121038914E0
2.955957746E0,-1.440479279E0,8.650053740E-1,4.916054249E0
2.965957746E0,-7.692924738E-1,1.500898004E0,5.837290764E0
2.975957746E0,-1.196411327E-1,2.720639229E0,6.048457623E0
2.985957746E0,1.520638824E0,4.499104977E0,6.578467846E0
2.995957746E0,2.305484533E0,4.668396950E0,7.123433113E0
3.005957746E0,2.655434847E0,4.808377266E0,7.691130161E0
3.015957746E0,2.020738840E0,4.747958183E0,8.152346611E0
3.025957746E0,8.835497499E-1,4.514657974E0,8.563314438E0
3.035957746E0,4.731806815E-1,3.988237143E0,9.238089561E0
3.045957746E0,1.256231871E-2,2.858226538E0,1.075693417E1
3.055957746E0,-1.429711580E-1,2.286940336E0,1.178704453E1
3.065957746E0,-3.032902777E-1,1.541576028E0,1.305045509E1
3.075957746E0,-1.381855011E-1,9.218349457E-1,1.427318668E1
3.085957746E0,-1.369891018E-1,6.245267391E-1,1.504188156E1
3.095957746E0,-1.172483087E0,-1.794617064E-2,1.591526127E1
3.105957746E0,-1.163509965E0,1.555334777E-1,1.568674660E1
3.115957746E0,-5.868397355E-1,7.088736892E-1,1.457647705E1
3.125957746E0,-3.170489967E-1,1.052243710E0,1.322931862E1
3.135957746E0,-8.374879137E-3,1.496112347E0,1.198385429E1
3.145957746E0,1.043868899E0,2.583052158E0,9.772886276E0
3.155957746E0,1.395613790E0,2.973082066E0,8.694320679E0
3.165957746E0,1.714457393E0,3.199802160E0,7.671987534E0
3.175957746E0,2.014756680E0,3.327818155E0,7.118647575E0
3.185957746E0,2.172084808E0,3.387638569E0,6.823133945E0
3.195957746E0,2.036890268E0,3.326023579E0,5.979065418E0
3.205957746E0,1.567897081E0,3.001197815E0,5.822335720E0
3.215957746E0,1.391426325E0,2.678166628E0,6.116054535E0
3.225957746E0,1.402194023E0,2.392822742E0,6.622136593E0
3.235957746E0,1.274178028E0,2.241476536E0,7.042077065E0
3.245957746E0,6.107679605E-1,1.815554142E0,7.697710514E0
3.255957746E0,2.961117923E-1,1.410568953E0,8.124829292E0
3.265957746E0,1.250249892E-1,9.577272534E-1,8.575876236E0
3.275957746E0,3.547359705E-1,7.459624410E-1,8.786444664E0
3.285957746E0,5.030909777E-1,5.694918036E-1,8.704490662E0
3.295957746E0,5.976074338E-1,2.614158690E-1,8.248059273E0
3.305957746E0,6.263213158E-1,2.620140910E-1,8.204988480E0
3.315957746E0,1.872383654E-1,2.356930375E-1,8.490332603E0
3.325957746E0,-3.421736360E-1,1.196411327E-1,9.339784622E0
3.335957746E0,-7.651050687E-1,-9.930214286E-2,1.068694401E1
3.345957746E0,-9.116654396E-1,-1.124626622E-1,1.197966671E1
3.355957746E0,-9.690931439E-2,5.401797295E-1,1.327478218E1
3.365957746E0,4.959124923E-1,9.379864931E-1,1.330349541E1
3.375957746E0,8.584251404E-1,1.285543919E0,1.283809185E1
3.385957746E0,8.428717852E-1,1.539183140E0,1.213579845E1
3.395957746E0,5.880361795E-1,1.811366796E0,1.135573769E1
3.405957746E0,4.809573591E-1,2.200798512E0,1.038604641E1
3.415957746E0,4.277170599E-1,2.369492531E0,1.015214825E1
3.425957746E0,2.889333367E-1,2.495115757E0,9.951150894E0
3.435957746E0,1.262213886E-1,2.495713949E0,9.830911636E0
3.445957746E0,-1.274178028E-1,2.496910334E0,9.657432556E0
3.455957746E0,-3.146561682E-1,2.526222467E0,9.460622787E0
3.465957746E0,-1.854437590E-1,2.450250387E0,9.441479683E0
3.475957746E0,-1.567298770E-1,2.359921217E0,9.321240425E0
3.485957746E0,-2.195414752E-1,2.337189436E0,9.129216194E0
3.495957746E0,-2.434697002E-1,2.324627161E0,8.885149002E0
3.505957746E0,-2.775674164E-1,2.192423820E0,8.553742409E0
3.515957746E0,-5.024927258E-1,2.279761791E0,8.352147102E0
3.525957746E0,-3.451646566E-1,2.327618122E0,8.396414757E0
3.535957746E0,-1.196411327E-1,2.392822742E0,8.679964066E0
3.545957746E0,-1.339980662E-1,2.372483730E0,8.866603851E0
3.555957746E0,-2.476571500E-1,2.160120726E0,9.137591362E0
3.565957746E0,-1.908276081E-1,2.040479422E0,9.098708153E0
3.575957746E0,-1.477568001E-1,1.916650891E0,9.002396584E0
3.585957746E0,-1.854437590E-2,1.820937991E0,9.055039406E0
3.595957746E0,2.931207791E-2,1.787438512E0,9.055039406E0
3.605957746E0,2.931207791E-2,1.787438512E0,9.055039406E0
3.615957746E0,3.529413417E-2,1.650449395E0,9.489934921E0
3.625957746E0,8.793623000E-2,1.601396561E0,9.714859962E0
3.635957746E0,1.316052526E-1,1.576870084E0,9.853643417E0
3.645957746E0,1.268195957E-1,1.518245935E0,1.003071213E1
3.655957746E0,1.459621787E-1,1.450648785E0,1.013061333E1
3.665957746E0,1.274178028E-1,1.334596872E0,1.032144070E1
3.675957746E0,3.649054468E-2,1.252642632E0,1.037827015E1
3.685957746E0,-1.615155302E-2,1.262812138E0,1.029631615E1
3.695957746E0,-1.615155302E-2,1.320239902E0,1.024905777E1
3.705957746E0,-1.136590727E-2,1.363908887E0,1.020120144E1
3.715957746E0,8.434699476E-2,1.536192179E0,1.019820976E1
3.725957746E0,1.657029688E-1,1.603191137E0,1.021795082E1
3.735957746E0,1.651047617E-1,1.651645780E0,1.016590691E1
3.745957746E0,1.603191197E-1,1.666600943E0,1.007019424E1
3.755957746E0,1.172483116E-1,1.667199135E0,9.973882675E0
3.765957746E0,-2.177468538E-1,1.511067510E0,9.636494637E0
3.775957746E0,-3.379862010E-1,1.497308731E0,9.468399048E0
3.785957746E0,-3.571287692E-1,1.536790371E0,9.315258980E0
3.795957746E0,-2.470589429E-1,1.517647743E0,9.325428009E0
3.805957746E0,-1.417747438E-1,1.493121386E0,9.416355133E0
3.815957746E0,-1.274178028E-1,1.640878081E0,9.484550476E0
3.825957746E0,-9.391828626E-2,1.708475351E0,9.470791817E0
3.835957746E0,-9.870393574E-2,1.717448473E0,9.489934921E0
3.845957746E0,-4.606183618E-2,1.703091502E0,9.533005714E0
3.855957746E0,-2.991028363E-3,1.683948994E0,9.523433685E0
3.865957746E0,-1.561316848E-1,1.517647743E0,9.325428009E0
3.875957746E0,-1.800599098E-1,1.469791293E0,9.344570160E0
3.885957746E0,-1.657029688E-1,1.441077471E0,9.363115311E0
3.895957746E0,-1.417747438E-1,1.402194023E0,9.372686386E0
3.905957746E0,-2.213360928E-2,1.454836130E0,9.450452805E0
3.915957746E0,1.357926875E-1,1.573879123E0,9.537791252E0
3.925957746E0,2.315055877E-1,1.563111424E0,9.710672379E0
3.935957746E0,2.512463629E-1,1.447059512E0,9.920642853E0
3.945957746E0,2.703889608E-1,1.402792215E0,1.009232807E1
3.955957746E0,1.130608693E-1,1.340578914E0,1.013479996E1
3.965957746E0,-3.589234129E-2,1.317248821E0,1.000498962E1
3.975957746E0,6.879365444E-2,1.615155339E0,9.781859398E0
3.985957746E0,3.529413417E-2,1.740778446E0,9.648459435E0
3.995957746E0,5.922235921E-2,1.770090580E0,9.586843491E0
4.005957746E0,7.357929647E-2,1.784447432E0,9.534201622E0
4.015957746E0,9.690931439E-2,1.803590059E0,9.505488396E0
4.025957746E0,4.486542568E-2,1.707278967E0,9.614959717E0
4.035957746E0,6.879365444E-2,1.725225091E0,9.792028427E0
4.045957746E0,6.580262445E-3,1.725823283E0,9.763314247E0
4.055957746E0,-3.170489892E-2,1.730608940E0,9.748957634E0
4.065957746E0,-1.322034448E-1,1.721037745E0,9.690931320E0
4.075957746E0,-4.127619043E-2,1.869990945E0,9.639486313E0
4.085957746E0,-6.999006122E-2,1.874776483E0,9.653842926E0
4.095957746E0,-9.870393574E-2,1.816750646E0,9.662816048E0
4.105957746E0,-1.465603858E-1,1.711466432E0,9.652647018E0
4.115957746E0,-2.135594189E-1,1.630708575E0,9.608379364E0
4.125957746E0,-2.464607358E-1,1.549352646E0,9.641280174E0
4.135957746E0,-1.842473447E-1,1.539183140E0,9.651450157E0
4.145957746E0,-1.561316848E-1,1.530210137E0,9.627521515E0
4.155957746E0,-1.034895778E-1,1.525424480E0,9.608379364E0
4.165957746E0,-5.563312769E-2,1.582852125E0,9.599406242E0
4.175957746E0,-7.776673418E-3,1.645663738E0,9.571290970E0
4.185957746E0,-2.213360928E-2,1.655235052E0,9.552147865E0
4.195957746E0,-4.606183618E-2,1.640878081E0,9.561120987E0
4.205957746E0,-8.434699476E-2,1.621137381E0,9.570692062E0
4.215957746E0,-6.999006122E-2,1.635494232E0,9.632905960E0
4.225957746E0,-7.956135273E-2,1.639681697E0,9.695118904E0
4.235957746E0,-1.076770201E-1,1.634297848E0,9.757332802E0
4.245957746E0,-1.172483116E-1,1.634297848E0,9.771689415E0
4.255957746E0,-1.268195957E-1,1.639681697E0,9.728618622E0
4.265957746E0,-6.999006122E-2,1.644467354E0,9.704689980E0
4.275957746E0,-4.606183618E-2,1.630708575E0,9.642477036E0
4.285957746E0,-5.084748194E-2,1.616949916E0,9.522835732E0
4.295957746E0,-6.999006122E-2,1.578066587E0,9.575477600E0
4.305957746E0,-1.034895778E-1,1.549352646E0,9.646664619E0
4.315957746E0,-1.603191197E-1,1.596012712E0,9.756733894E0
4.325957746E0,-1.938186288E-1,1.667199135E0,9.848259926E0
4.335957746E0,-1.124626622E-1,1.676770449E0,9.853643417E0
4.345957746E0,-1.316052526E-1,1.658226132E0,9.800403595E0
4.355957746E0,-1.316052526E-1,1.663011789E0,9.776474953E0
4.365957746E0,-1.465603858E-1,1.654038668E0,9.704689980E0
4.375957746E0,-1.848455518E-1,1.625923038E0,9.613164902E0
4.385957746E0,-1.274178028E-1,1.636092424E0,9.498908043E0
4.395957746E0,-1.226321608E-1,1.655235052E0,9.541978836E0
4.405957746E0,-1.369891018E-1,1.692921996E0,9.623334885E0
4.415957746E0,-1.178465188E-1,1.759322882E0,9.690931320E0
4.425957746E0,-1.465603858E-1,1.797608018E0,9.667601585E0
4.435957746E0,-1.465603858E-1,1.797608018E0,9.667601585E0
4.445957746E0,-1.465603858E-1,1.659422517E0,9.561120987E0
4.455957746E0,-1.034895778E-1,1.655235052E0,9.541978836E0
4.465957746E0,-1.178465188E-1,1.669592023E0,9.522835732E0
4.475957746E0,-1.130608693E-1,1.698305845E0,9.556933403E0
4.485957746E0,-1.411765367E-1,1.687538147E0,9.728618622E0
4.495957746E0,-1.794617027E-1,1.663011789E0,9.747760773E0
4.505957746E0,-2.416750938E-1,1.615155339E0,9.742377281E0
4.515957746E0,-2.799602449E-1,1.543968797E0,9.679565430E0
4.525957746E0,-2.709871531E-1,1.520638824E0,9.612566948E0
4.535957746E0,-2.662015259E-1,1.487139225E0,9.540184021E0
4.545957746E0,-1.992024779E-1,1.478166223E0,9.521639824E0
4.555957746E0,-1.513460279E-1,1.534995675E0,9.589237213E0
4.565957746E0,-1.082752272E-1,1.616351724E0,9.632905960E0
4.575957746E0,-1.034895778E-1,1.654636860E0,9.618548393E0
4.585957746E0,-8.913264424E-2,1.683350682E0,9.628718376E0
4.595957746E0,-1.130608693E-1,1.620539188E0,9.666405678E0
4.605957746E0,-7.477571070E-2,1.625923038E0,9.656833649E0
4.615957746E0,-6.460621208E-2,1.562513232E0,9.757332802E0
4.625957746E0,-7.417750359E-2,1.539183140E0,9.747162819E0
4.635957746E0,-1.172483116E-1,1.558325768E0,9.737591743E0
4.645957746E0,-2.943171859E-1,1.505683661E0,9.693922997E0
4.655957746E0,-3.134597540E-1,1.557727575E0,9.780064583E0
4.665957746E0,-4.049852192E-1,1.534995675E0,9.525827408E0
4.675957746E0,-4.295116663E-1,1.599601984E0,9.181260109E0
4.685957746E0,-2.853440940E-1,1.669592023E0,9.460023880E0
4.695957746E0,-3.948157430E-1,1.485942841E0,9.750752449E0
4.705957746E0,-3.750749528E-1,1.465603828E0,9.923035622E0
4.715957746E0,-3.942175210E-1,1.459621787E0,1.010488987E1
4.725957746E0,-4.181457460E-1,1.441077471E0,1.001336479E1
4.735957746E0,-4.181457460E-1,1.465005636E0,1.002831936E1
4.745957746E0,-3.272185028E-1,1.575075507E0,1.009113121E1
4.755957746E0,-3.607180119E-1,1.540977836E0,1.011027431E1
4.765957746E0,-6.765705943E-1,1.337587833E0,9.710074425E0
4.775957746E0,-3.146561682E-1,1.423131227E0,9.108877182E0
4.812607406E0,-3.283550978E0,-9.232706070E0,7.692924738E-1
4.822607406E0,-3.307479143E0,-9.164510727E0,6.119644046E-1
4.832607406E0,-3.393620729E0,-9.207581520E0,5.682953596E-1
4.842607406E0,-3.565903902E0,-9.217751503E0,6.442674994E-1
4.852607406E0,-3.632902861E0,-9.208179474E0,6.628118753E-1
4.862607406E0,-3.579662561E0,-9.165707588E0,7.639086246E-1
4.872607406E0,-3.646661758E0,-9.165707588E0,7.734799385E-1
4.882607406E0,-3.665804386E0,-9.122636795E0,7.160521746E-1
4.892607406E0,-3.551547050E0,-9.060422897E0,7.651050687E-1
4.902607406E0,-3.608376503E0,-9.084351540E0,7.692924738E-1
4.912607406E0,-3.652045488E0,-9.002396584E0,6.831508875E-1
4.922607406E0,-3.575475216E0,-9.002995491E0,7.459624410E-1
4.932607406E0,-3.527020693E0,-8.984451294E0,8.231309652E-1
4.942607406E0,-3.522833109E0,-9.035896301E0,7.076773047E-1
4.952607406E0,-3.494119167E0,-9.098110199E0,6.544370055E-1
4.962607406E0,-3.479762316E0,-9.083154678E0,5.736792088E-1
4.972607406E0,-3.398406267E0,-9.059226990E0,5.545366406E-1
4.982607406E0,-3.417548895E0,-9.097511292E0,5.497509837E-1
4.992607406E0,-3.451048374E0,-9.169296265E0,5.395814776E-1
5.002607406E0,-3.460619688E0,-9.111868858E0,5.778666735E-1
5.012607406E0,-3.465405464E0,-9.055637360E0,7.507480979E-1
5.022607406E0,-3.484548092E0,-9.036494255E0,8.129615188E-1
5.032607406E0,-3.507878065E0,-9.070592880E0,8.847461939E-1
5.042607406E0,-3.546163082E0,-9.095118523E0,9.272187948E-1
5.052607406E0,-3.536591768E0,-9.099306107E0,9.032905698E-1
5.062607406E0,-3.469592810E0,-9.128020287E0,9.032905698E-1
5.072607406E0,-3.436093330E0,-9.161520004E0,8.458628058E-1
5.082607406E0,-3.465405464E0,-9.203991890E0,7.692924738E-1
5.092607406E0,-3.465405464E0,-9.179466248E0,6.400800347E-1
5.102607406E0,-3.436691523E0,-9.160323143E0,6.975077987E-1
5.112607406E0,-3.460619688E0,-9.156135559E0,7.310073376E-1
5.122607406E0,-3.513261795E0,-9.160323143E0,7.070791125E-1
5.132607406E0,-3.570689678E0,-9.136395454E0,6.538388133E-1
5.142607406E0,-3.575475216E0,-9.126823425E0,6.831508875E-1
5.152607406E0,-3.589832067E0,-9.136395454E0,7.112665176E-1
5.162607406E0,-3.603590965E0,-9.136993408E0,7.208378315E-1
5.172607406E0,-3.608376503E0,-9.118449211E0,8.027920127E-1
5.182607406E0,-3.613162279E0,-9.061020851E0,8.315058947E-1
5.192607406E0,-3.546163082E0,-9.022137642E0,8.033902049E-1
5.202607406E0,-3.512663603E0,-9.046664238E0,8.560323119E-1
5.212607406E0,-3.532404423E0,-9.046066284E0,7.172485590E-1
5.222607406E0,-3.541975737E0,-9.055637360E0,7.172485590E-1
5.232607406E0,-3.498904943E0,-9.113064766E0,7.788637877E-1
5.242607406E0,-3.522234917E0,-9.165707588E0,7.788637877E-1
5.252607406E0,-3.580260992E0,-9.089137077E0,7.310073376E-1
5.262607406E0,-3.632304668E0,-9.046066284E0,7.788637877E-1
5.272607406E0,-3.613162279E0,-9.094520569E0,8.458628058E-1
5.282607406E0,-3.622733593E0,-9.132805824E0,8.069794178E-1
5.292607406E0,-3.617947817E0,-9.108877182E0,8.027920127E-1
5.302607406E0,-3.617947817E0,-9.065806389E0,8.123632669E-1
5.312607406E0,-3.637090445E0,-9.051449776E0,8.267202377E-1
5.322607406E0,-3.651447296E0,-9.060422897E0,7.501499057E-1
5.332607406E0,-3.618546009E0,-9.041280746E0,7.405785918E-1
5.342607406E0,-3.632902861E0,-9.021539688E0,6.975077987E-1
5.352607406E0,-3.652045488E0,-9.045467377E0,6.257231236E-1
5.362607406E0,-3.675973892E0,-9.059226990E0,5.443671346E-1
5.372607406E0,-3.628117323E0,-9.107083321E0,5.772684813E-1
5.382607406E0,-3.594617844E0,-9.150752068E0,6.251249313E-1
5.392607406E0,-3.628117323E0,-9.165108681E0,6.681957245E-1
5.402607406E0,-3.613760471E0,-9.122636795E0,7.112665176E-1
5.412607406E0,-3.570091486E0,-9.093922615E0,7.692924738E-1
5.422607406E0,-3.517449379E0,-9.103493690E0,8.075776696E-1
5.432607406E0,-3.517449379E0,-9.122636795E0,8.123632669E-1
5.442607406E0,-3.522234917E0,-9.113064766E0,8.123632669E-1
5.452607406E0,-3.555734396E0,-9.128020287E0,8.219345808E-1
5.462607406E0,-3.579662561E0,-9.132805824E0,8.410771489E-1
5.472607406E0,-3.570091486E0,-9.132805824E0,8.362914920E-1
5.482607406E0,-3.598805189E0,-9.142376900E0,8.452646136E-1
5.492607406E0,-3.632304668E0,-9.166903496E0,9.122636318E-1
5.502607406E0,-3.670589924E0,-9.152546883E0,9.409775138E-1
5.512607406E0,-3.656233072E0,-9.128618240E0,9.792626500E-1
5.522607406E0,-3.603590965E0,-9.110074043E0,1.032503009E0
5.532607406E0,-3.522234917E0,-9.162715912E0,1.075573802E0
5.542607406E0,-3.436093330E0,-9.224929810E0,1.051645517E0
5.552607406E0,-3.359523058E0,-9.239286423E0,1.080359459E0
5.562607406E0,-3.287738323E0,-9.397810936E0,1.132403374E0
5.572607406E0,-3.244667530E0,-9.497711182E0,1.107876897E0
5.582607406E0,-3.138785124E0,-9.531808853E0,1.199402332E0
5.592607406E0,-3.110071182E0,-9.508479118E0,1.275972724E0
5.602607406E0,-3.023929596E0,-9.451649666E0,1.353141189E0
5.612607406E0,-3.047857761E0,-9.313464165E0,1.478764415E0
5.622607406E0,-3.095714331E0,-9.156135559E0,1.575075507E0
5.632607406E0,-3.186641455E0,-9.113064766E0,1.608574986E0
5.642607406E0,-3.257827997E0,-9.104091644E0,1.627717614E0
5.652607406E0,-3.310470104E0,-9.070592880E0,1.627717614E0
5.662607406E0,-3.233899832E0,-9.004191399E0,1.786242127E0
5.672607406E0,-3.238685369E0,-9.013762474E0,1.767099500E0
5.682607406E0,-3.263211966E0,-8.903095245E0,1.648056626E0
5.692607406E0,-3.344567776E0,-8.816354752E0,1.542772412E0
5.702607406E0,-3.440280676E0,-8.734400749E0,1.470987678E0
5.712607406E0,-3.478565931E0,-8.711071014E0,1.528415442E0
5.722607406E0,-3.512065411E0,-8.687741280E0,1.600798368E0
5.732607406E0,-3.482753277E0,-8.463413239E0,1.702493310E0
5.742607406E0,-3.305684566E0,-8.081758499E0,1.940579176E0
5.752607406E0,-3.233899832E0,-7.931010723E0,2.286342144E0
5.762607406E0,-3.410370588E0,-7.836493969E0,2.535195589E0
5.772607406E0,-3.634697676E0,-7.746763229E0,2.640479803E0
5.782607406E0,-3.960121393E0,-7.587640762E0,2.419741869E0
5.792607406E0,-4.128815651E0,-7.398009300E0,1.956132531E0
5.802607406E0,-3.986442566E0,-7.260422230E0,1.377667665E0
5.812607406E0,-4.144368649E0,-7.268796921E0,1.133001566E0
5.822607406E0,-4.134797573E0,-7.150352478E0,1.354337573E0
5.832607406E0,-3.809373617E0,-6.949953556E0,1.524227977E0
5.842607406E0,-2.728415966E0,-6.772286415E0,1.567897081E0
5.852607406E0,-1.584646821E0,-6.584449768E0,2.239083767E0
5.862607406E0,-7.890332937E-1,-6.647859573E0,3.290131092E0
5.872607406E0,-2.763710022E-1,-6.647859573E0,4.140181541E0
5.882607406E0,-3.990031779E-1,-6.427719593E0,4.887938499E0
5.892607406E0,-1.507478237E0,-6.209374905E0,5.766104221E0
5.902607406E0,-3.055036306E0,-6.451049805E0,6.663413048E0
5.912607406E0,-4.479962349E0,-7.135396957E0,6.486343861E0
5.922607406E0,-5.778068542E0,-8.125427246E0,4.688735962E0
5.932607406E0,-6.458826542E0,-8.984451294E0,3.512065411E0
5.942607406E0,-5.183452129E0,-9.212367058E0,2.648854733E0
5.952607406E0,-4.684548378E0,-9.484550476E0,3.305086374E0
5.962607406E0,-3.956532240E0,-9.335597992E0,4.113262177E0
5.972607406E0,-3.103491068E0,-9.251250267E0,5.223531723E0
5.982607406E0,-2.883351326E0,-9.094520569E0,5.483751297E0
5.992607406E0,-3.486342669E0,-9.141778946E0,5.342574596E0
6.002607406E0,-4.284348965E0,-9.583852768E0,5.504090309E0
6.012607406E0,-4.786243439E0,-9.814760208E0,5.577071190E0
6.022607406E0,-4.695914268E0,-9.506684303E0,5.316253662E0
6.032607406E0,-4.390231133E0,-9.246464729E0,5.065007210E0
6.042607406E0,-3.726222992E0,-8.402397156E0,4.895715237E0
6.052607406E0,-3.391227961E0,-8.618349075E0,5.073382378E0
6.062607406E0,-2.908475876E0,-8.173882484E0,5.187639713E0
6.072607406E0,-2.587837696E0,-8.108079910E0,5.400002480E0
6.082607406E0,-2.811566591E0,-8.029714584E0,5.868995667E0
6.092607406E0,-2.496312141E0,-6.900900364E0,6.030511379E0
6.102607406E0,-1.879562140E0,-6.154938221E0,6.220142365E0
6.112607406E0,-1.261615753E0,-5.813362598E0,6.732206345E0
6.122607406E0,-1.131805062E0,-6.026922226E0,7.267600536E0
6.132607406E0,-1.403988719E0,-6.229713917E0,7.480561733E0
6.142607406E0,-1.475773335E0,-6.539584160E0,7.325028419E0
6.152607406E0,-1.179661512E0,-6.891329288E0,6.969694138E0
6.162607406E0,-1.198205948E0,-6.664609432E0,7.421339512E0
6.172607406E0,-7.818548083E-1,-4.755136967E0,8.205587387E0
6.182607406E0,-1.417149186E0,-5.498706341E0,8.419146538E0
6.192607406E0,-1.948953986E0,-6.690331936E0,7.566703320E0
6.202607406E0,-2.089532375E0,-7.259225845E0,6.010770321E0
6.212607406E0,-2.234298229E0,-7.397411346E0,5.109274387E0
6.222607406E0,-2.362912416E0,-7.974679470E0,5.564508915E0
6.232607406E0,-1.846660852E0,-8.317451477E0,5.296513081E0
6.242607406E0,-1.089930773E0,-7.194619656E0,3.424727440E0
6.252607406E0,-9.720842242E-1,-6.371488571E0,2.712264538E0
6.262607406E0,-1.277169108E0,-6.340980053E0,3.184846878E0
6.272607406E0,-2.411965132E0,-6.736393929E0,4.998008251E0
6.282607406E0,-4.322634220E0,-7.218547821E0,6.074180126E0
6.292607406E0,-2.606980324E0,-4.987838745E0,6.200401783E0
6.302607406E0,-3.145963669E0,-4.772484779E0,6.932605267E0
6.312607406E0,-3.548556089E0,-4.707878590E0,6.457031727E0
6.322607406E0,-2.749951363E0,-5.276772022E0,6.461817741E0
6.332607406E0,-1.544566989E0,-6.002993584E0,6.447460651E0
6.342607406E0,-1.998006850E-1,-4.418945312E0,7.415357590E0
6.352607406E0,7.746763229E-1,-2.255833626E0,7.475776196E0
6.362607406E0,1.402792215E0,-2.167299032E0,8.714061737E0
6.372607406E0,9.451649189E-1,-2.811566591E0,9.192028046E0
6.382607406E0,3.774677813E-1,-2.922234535E0,9.936196327E0
6.392607406E0,2.518445849E-1,-2.219342947E0,9.250652313E0
6.402607406E0,4.636093974E-1,-6.059823632E-1,7.710272789E0
6.412607406E0,1.496710539E0,6.634100676E-1,8.354539871E0
6.422607406E0,4.221537113E0,2.758326292E0,1.120319557E1
6.432607406E0,6.914061069E0,5.163113117E0,1.501675701E1
6.442607406E0,7.588837147E0,6.232106686E0,1.857907104E1
6.452607406E0,8.517850876E0,7.161119938E0,2.245783615E1
6.462607406E0,9.061020851E0,8.469395638E0,2.448395920E1
6.472607406E0,8.634500504E0,9.128020287E0,2.396950340E1
6.482607406E0,7.543373585E0,7.414759159E0,2.304946327E1
6.492607406E0,5.598008633E0,3.998406649E0,1.967318916E1
6.502607406E0,3.602394581E0,1.782652855E0,1.255932808E1
6.512607406E0,2.143370867E0,5.383850932E-1,6.273382664E0
6.522607406E0,1.824527264E0,1.591227055E-1,4.147958279E0
6.532607406E0,2.313261271E0,7.818548083E-1,1.869990945E0
6.542607406E0,4.168895245E0,2.213959217E0,-2.877369225E-1
6.552607406E0,6.081956863E0,4.161716938E0,-2.327019930E0
6.562607406E0,8.349156380E0,7.206583500E0,-3.735794306E0
6.572607406E0,1.401954746E1,1.038784122E1,-3.506681681E0
6.582607406E0,2.255713844E1,1.285005569E1,7.085746288E0
6.592607406E0,1.514477253E1,1.253958702E1,1.512383556E1
6.602607406E0,8.258827209E0,9.681958199E0,1.427976704E1
6.612607406E0,6.960721016E0,9.821938515E0,1.009531879E1
6.622607406E0,6.815955162E0,9.611968994E0,6.267400742E0
6.632607406E0,8.047660828E0,9.940981865E0,5.096114159E0
6.642607406E0,1.003430176E1,1.016590691E1,3.817150354E0
6.652607406E0,1.152203941E1,1.026341438E1,1.481755376E0
6.662607406E0,1.204606724E1,1.050090218E1,3.170489967E-1
6.672607406E0,1.056431198E1,1.203470135E1,-1.780858278E0
6.682607406E0,5.508875847E0,1.329751396E1,-2.357528448E0
6.692607406E0,-2.283350945E0,1.309831142E1,1.686341763E0
6.702607406E0,-6.704091072E0,1.055115128E1,5.009972572E0
6.712607406E0,-7.678567886E0,5.784050465E0,7.264609337E0
6.722607406E0,-3.266202927E0,4.533800602E0,6.483353138E0
6.732607406E0,-1.442273855E0,3.370290756E0,4.567898273E0
6.742607406E0,-5.970092416E-1,2.568096876E0,3.622733593E0
6.752607406E0,3.708875179E-2,2.450848579E0,2.561516523E0
6.762607406E0,6.059823632E-1,3.011367321E0,2.523829699E0
6.772607406E0,1.233500123E0,3.323630571E0,3.136392355E0
6.782607406E0,2.060818434E0,3.824927092E0,3.511467218E0
6.792607406E0,2.601596355E0,4.147958279E0,3.898506403E0
6.802607406E0,3.190829039E0,4.274179459E0,4.524229527E0
6.812607406E0,3.746562004E0,4.533202648E0,5.169693470E0
6.822607406E0,4.143770695E0,5.019543648E0,5.523830891E0
6.832607406E0,4.670789719E0,5.203791142E0,6.001199245E0
6.842607406E0,4.503890514E0,5.382654667E0,6.418148518E0
6.852607406E0,3.651447296E0,5.242076397E0,5.863611698E0
6.862607406E0,3.133999348E0,5.452046394E0,5.173282623E0
6.872607406E0,2.525624275E0,5.623133183E0,4.491926193E0
6.882607406E0,1.999203324E0,5.787639618E0,4.136591911E0
6.892607406E0,1.357328653E0,6.090929985E0,3.757927895E0
6.902607406E0,1.046859860E0,6.167500496E0,3.771686792E0
6.912607406E0,7.232306600E-1,6.037091732E0,4.626522541E0
6.922607406E0,1.555334777E-1,5.763711452E0,5.422136307E0
6.932607406E0,-6.167500615E-1,5.156532764E0,6.780063152E0
6.942607406E0,-1.010967612E0,4.473381996E0,7.981259823E0
6.952607406E0,-9.996016622E-1,4.141975880E0,8.927022934E0
6.962607406E0,-8.883354068E-1,4.150351048E0,9.909276962E0
6.972607406E0,-9.296116233E-1,4.472783566E0,1.112243748E1
6.982607406E0,-1.095912814E0,4.826921463E0,1.188574791E1
6.992607406E0,-9.320043921E-1,5.711667538E0,1.276331615E1
7.002607406E0,-8.638089895E-1,6.290730953E0,1.353859043E1
7.012607406E0,-6.197410822E-1,6.509075642E0,1.380897903E1
7.022607406E0,-2.195414752E-1,6.714260101E0,1.318923855E1
7.032607406E0,4.959124923E-1,6.354140759E0,1.196351528E1
7.042607406E0,1.110269666E0,5.614758492E0,1.022333431E1
7.052607406E0,1.380658627E0,5.053043365E0,8.927620888E0
7.062607406E0,1.676172256E0,4.566103935E0,8.030312538E0
7.072607406E0,1.003190875E0,3.954737663E0,8.550751686E0
7.082607406E0,1.091725349E0,3.711267948E0,9.937990189E0
7.092607406E0,1.371087432E0,3.097508907E0,1.093101215E1
7.102607406E0,1.070189953E0,2.575275421E0,1.097946644E1
7.112607406E0,3.409772217E-1,2.157129526E0,9.705288887E0
7.122607406E0,-6.927221417E-1,1.246660590E0,8.943174362E0
7.132607406E0,-1.528415442E0,-3.619144261E-1,8.915657043E0
7.142607406E0,-2.254637241E0,-2.973680258E0,8.647063255E0
7.152607406E0,-1.822134495E0,-3.713062525E0,9.778867722E0
7.162607406E0,-9.278169870E-1,-4.938187599E0,1.215912819E1
7.172607406E0,4.833501875E-1,-6.061617851E0,1.517468262E1
7.182607406E0,1.625923038E0,-5.947958946E0,1.777029800E1
7.192607406E0,2.652443886E0,-6.299703598E0,1.981675911E1
7.202607406E0,2.613560438E0,-6.419943333E0,1.917847443E1
7.212607406E0,2.117049932E0,-6.215356827E0,1.701835251E1
7.222607406E0,1.946561217E0,-5.190630436E0,1.541516209E1
7.232607406E0,1.986641049E0,-4.366901398E0,1.380239964E1
7.242607406E0,-1.025922656E0,8.135597110E-1,1.235833073E1
7.252607406E0,-1.828714728E0,2.232503414E0,1.030050373E1
7.262607406E0,-2.066202402E0,2.520838737E0,8.606385231E0
7.272607406E0,-1.834098577E0,2.285145521E0,7.289135933E0
7.282607406E0,-1.467398524E0,1.370489120E0,5.905486107E0
7.292607406E0,-1.110269666E0,1.892124534E0,5.206183910E0
7.302607406E0,-6.957131624E-1,2.336591244E0,4.602594376E0
7.312607406E0,1.794616925E-3,1.399801254E0,3.784847260E0
7.322607406E0,1.953141451E0,-1.299900889E0,3.344567776E0
7.332607406E0,2.753540754E0,-6.765705943E-1,1.704287887E0
7.342607406E0,3.094517946E0,-1.063609719E0,2.445464849E0
7.352607406E0,3.527618885E0,-7.633104324E-1,4.216153622E0
7.362607406E0,4.027718544E0,-7.112665176E-1,5.836692810E0
7.372607406E0,4.403391838E0,-4.546363056E-1,7.726424217E0
7.382607406E0,4.730011940E0,-6.281159073E-2,8.639883995E0
7.392607406E0,4.820341110E0,-8.973085321E-3,8.477770805E0
7.402607406E0,5.030311584E0,9.391828626E-2,8.124829292E0
7.412607406E0,5.240281582E0,2.105683982E-1,7.844270706E0
7.422607406E0,5.555535793E0,5.126622319E-1,7.780262947E0
7.432607406E0,6.053243160E0,6.640082598E-1,8.146963120E0
7.442607406E0,6.241079807E0,6.975077987E-1,8.947361946E0
7.452607406E0,6.285346985E0,7.974081635E-1,9.814760208E0
7.462607406E0,5.833103180E0,5.096712112E-1,1.060618591E1
7.472607406E0,5.388636589E0,-1.184447184E-1,1.072522926E1
7.482607406E0,5.168497086E0,-7.872386575E-1,1.046620655E1
7.492607406E0,5.474778175E0,-1.609771490E0,1.044766140E1
7.502607406E0,6.307480335E0,-2.472383976E0,1.071386337E1
7.512607406E0,7.107879639E0,-2.219342947E0,1.162792206E1
7.522607406E0,5.986244202E0,-1.730608940E0,1.291047478E1
7.532607406E0,5.795416355E0,-1.016949654E0,1.356550980E1
7.542607406E0,5.312066078E0,-3.553341627E-1,1.334716511E1
7.552607406E0,4.516452789E0,5.294120312E-1,1.254556942E1
7.562607406E0,3.462414265E0,1.415952802E0,1.146939754E1
7.572607406E0,2.446063042E0,1.840080619E0,1.017547798E1
7.582607406E0,1.616949916E0,2.070987940E0,9.091529846E0
7.592607406E0,9.308080077E-1,1.844866276E0,7.698906898E0
7.602607406E0,3.415754437E-1,1.112662554E0,6.859025955E0
7.612607406E0,-3.379862010E-1,2.632105052E-1,6.309873104E0
7.622607406E0,-5.389832854E-1,-1.986042857E-1,5.946762562E0
7.632607406E0,-6.251249313E-1,-3.421736360E-1,5.979065418E0
7.642607406E0,-7.633104324E-1,-3.481557071E-1,6.059823513E0
7.652607406E0,-1.555334777E-1,1.232303679E-1,6.539584160E0
7.662607406E0,3.756731451E-1,3.900300860E-1,6.835097790E0
7.672607406E0,9.026923180E-1,4.863412082E-1,7.555935860E0
7.682607406E0,1.802393675E0,8.656035662E-1,8.237292290E0
7.692607406E0,2.616551638E0,1.104885817E0,9.108279228E0
7.702607406E0,3.086143017E0,1.188634634E0,9.527621269E0
7.712607406E0,3.368496180E0,1.095912814E0,9.863214493E0
7.722607406E0,3.637090445E0,9.924231768E-1,1.034237766E1
7.732607406E0,3.772284985E0,9.272187948E-1,1.085982513E1
7.742607406E0,3.734597921E0,1.014556766E0,1.144905853E1
7.752607406E0,3.486940861E0,9.918249846E-1,1.194138145E1
7.762607406E0,3.186043262E0,9.242277741E-1,1.201615715E1
7.772607406E0,2.673979282E0,1.030110121E0,1.181396389E1
7.782607406E0,2.109273195E0,1.213161111E0,1.157348537E1
7.792607406E0,1.573280931E0,1.227517962E0,1.152323532E1
7.802607406E0,1.267597795E0,1.256231904E0,1.146042442E1
7.812607406E0,1.061815023E0,1.261615753E0,1.134437180E1
7.822607406E0,1.075573802E0,1.268794179E0,1.097587776E1
7.832607406E0,1.251446247E0,1.310070395E0,1.053141022E1
7.842607406E0,1.350748420E0,1.323829174E0,9.923633575E0
7.852607406E0,1.296909928E0,1.275374413E0,9.243474007E0
7.862607406E0,1.224527001E0,1.222134113E0,8.596215248E0
7.872607406E0,1.213759303E0,1.143769264E0,8.073982239E0
7.882607406E0,1.185045362E0,1.121635556E0,7.791030407E0
7.892607406E0,1.208375454E0,1.136590719E0,7.666603565E0
7.902607406E0,1.371087432E0,1.189232826E0,7.710870743E0
7.912607406E0,1.777867198E0,1.235892892E0,7.971090317E0
7.922607406E0,2.127817631E0,1.272383451E0,8.336593628E0
7.932607406E0,2.386242390E0,1.228116274E0,8.524430275E0
7.942607406E0,2.544766903E0,1.116251707E0,8.821140289E0
7.952607406E0,2.602792740E0,9.272187948E-1,9.179466248E0
7.962607406E0,2.574677229E0,7.244270444E-1,9.474381447E0
7.972607406E0,2.498705149E0,5.982056856E-1,9.770493507E0
7.982607406E0,2.513062000E0,4.917250574E-1,9.942177773E0
7.992607406E0,2.451446772E0,4.193421602E-1,1.001815033E1
8.002607406E0,2.398804665E0,4.432703853E-1,1.006122112E1
8.012607406E0,2.451446772E0,4.336991012E-1,1.006122112E1
8.022607406E0,2.499303341E0,5.335994363E-1,1.012463093E1
8.032607406E0,2.494517565E0,5.718846321E-1,1.010548782E1
8.042607406E0,2.451446772E0,5.383850932E-1,1.008096218E1
8.052607406E0,2.480160713E0,5.772684813E-1,1.005284595E1
8.062607406E0,2.455634356E0,6.209374666E-1,9.961918831E0
8.072607406E0,2.426920414E0,6.693921089E-1,9.803992271E0
8.082607406E0,2.354537487E0,7.184450030E-1,9.598209381E0
8.092607406E0,2.225325108E0,7.052844763E-1,9.401400566E0
8.102607406E0,2.187039852E0,7.543373108E-1,9.272188187E0
8.112607406E0,2.253440619E0,7.830511928E-1,9.248857498E0
8.122607406E0,2.272583246E0,7.782655358E-1,9.224929810E0
8.132607406E0,2.267797709E0,7.692924738E-1,9.196215630E0
8.142607406E0,2.301297188E0,8.075776696E-1,9.153144836E0
8.152607406E0,2.286940336E0,8.027920127E-1,9.167501450E0
8.162607406E0,2.310868502E0,8.171489239E-1,9.134002686E0
8.172607406E0,2.315654039E0,8.362914920E-1,9.196813583E0
8.182607406E0,2.349153519E0,7.926225066E-1,9.297312737E0
8.192607406E0,2.354537487E0,7.531409264E-1,9.430712700E0
8.202607406E0,2.359323025E0,7.435696125E-1,9.492925644E0
8.212607406E0,2.335394859E0,7.238288522E-1,9.526425362E0
8.222607406E0,2.301895380E0,7.381857634E-1,9.492925644E0
8.232607406E0,2.239681959E0,7.908278704E-1,9.540781975E0
8.242607406E0,2.196611166E0,8.141579032E-1,9.593423843E0
8.252607406E0,2.173281193E0,8.524430394E-1,9.660423279E0
8.262607406E0,2.106282234E0,8.285148144E-1,9.641280174E0
8.272607406E0,2.039283037E0,8.237292171E-1,9.602396965E0
8.282607406E0,2.048854351E0,8.333004713E-1,9.611968994E0
8.292607406E0,2.067996979E0,8.572286963E-1,9.598209381E0
8.302607406E0,2.058425665E0,8.620143533E-1,9.626923561E0
8.312607406E0,2.077568293E0,8.428717852E-1,9.622138023E0
8.322607406E0,2.125424623E0,8.422735929E-1,9.679565430E0
8.332607406E0,2.130210400E0,8.422735929E-1,9.674779892E0
8.342607406E0,2.091925144E0,8.141579032E-1,9.640682220E0
8.352607406E0,2.048854351E0,7.998009920E-1,9.573683739E0
8.362607406E0,2.062613010E0,8.003991842E-1,9.511469841E0
8.372607406E0,2.067398787E0,8.003991842E-1,9.511469841E0
8.382607406E0,2.105684042E0,7.860422134E-1,9.506684303E0
8.392607406E0,2.086541414E0,7.722834945E-1,9.406186104E0
8.402607406E0,2.134397745E0,7.680960894E-1,9.358329773E0
8.412607406E0,2.206182480E0,7.860422134E-1,9.531210899E0
8.422607406E0,2.249253273E0,7.668996453E-1,9.540781975E0
8.432607406E0,2.354537487E0,7.908278704E-1,9.546165466E0
8.442607406E0,2.378465652E0,7.908278704E-1,9.541379929E0
8.452607406E0,2.354537487E0,7.525427341E-1,9.521639824E0
8.462607406E0,2.325823545E0,7.674978375E-1,9.445069313E0
8.472607406E0,2.335394859E0,7.866404653E-1,9.421739578E0
8.482607406E0,2.220539331E0,7.633104324E-1,9.378069878E0
8.492607406E0,2.268395901E0,7.579265833E-1,9.411569595E0
8.502607406E0,2.321038008E0,7.674978375E-1,9.478569031E0
8.512607406E0,2.258824587E0,7.148557901E-1,9.430113792E0
8.522607406E0,2.282752752E0,7.531409264E-1,9.454640388E0
8.532607406E0,2.330609322E0,7.663014531E-1,9.602995872E0
8.542607406E0,2.249253273E0,7.764709592E-1,9.550353050E0
8.552607406E0,2.201396942E0,7.764709592E-1,9.492925644E0
8.562607406E0,2.201396942E0,7.764709592E-1,9.535996437E0
8.572607406E0,2.139183521E0,7.621139884E-1,9.521040916E0
8.582607406E0,2.143969059E0,7.525427341E-1,9.501898766E0
8.592607406E0,2.158325911E0,7.531409264E-1,9.449256897E0
8.602607406E0,2.163111687E0,7.334001660E-1,9.497113228E0
8.612607406E0,2.153540373E0,7.094719410E-1,9.521040916E0
8.622607406E0,2.206780672E0,7.232306600E-1,9.616754532E0
8.632607406E0,2.216351986E0,7.184450030E-1,9.640682220E0
8.642607406E0,2.240280151E0,7.040880919E-1,9.607182503E0
8.652607406E0,2.235494614E0,7.136593461E-1,9.607182503E0
8.662607406E0,2.263610125E0,7.716853023E-1,9.492925644E0
8.672607406E0,2.273181438E0,8.009973764E-1,9.478569031E0
8.682607406E0,2.263610125E0,8.249256015E-1,9.450452805E0
8.692607406E0,2.297109842E0,8.392825127E-1,9.469595909E0
8.702607406E0,2.268395901E0,8.434699774E-1,9.498309135E0
8.712607406E0,2.196611166E0,7.477570772E-1,9.482755661E0
8.722607406E0,2.215753794E0,7.531409264E-1,9.444471359E0
8.732607406E0,2.301895380E0,7.525427341E-1,9.579067230E0
8.742607406E0,2.029113531E0,6.388836503E-1,9.294919968E0
8.752607406E0,2.148754835E0,6.927221417E-1,9.185447693E0
8.762607406E0,2.225923300E0,7.567301393E-1,9.612566948E0
8.772607406E0,2.230708838E0,7.758727670E-1,9.660423279E0
8.782607406E0,2.196611166E0,7.573283911E-1,9.544969559E0
8.792607406E0,2.158325911E0,7.477570772E-1,9.477970123E0
8.802607406E0,2.167897224E0,7.094719410E-1,9.487542152E0
8.812607406E0,2.210968018E0,6.759724021E-1,9.487542152E0
8.822607406E0,2.225325108E0,7.477570772E-1,9.482755661E0
8.832607406E0,2.220539331E0,7.429714203E-1,9.530612946E0
8.842607406E0,2.187039852E0,6.430711150E-1,9.467801094E0
8.852607406E0,2.249253273E0,8.201399446E-1,9.406784058E0
8.862607406E0,2.244467735E0,8.105686903E-1,9.401998520E0
8.872607406E0,2.273779631E0,6.693921089E-1,9.779465675E0
8.882607406E0,2.341377020E0,5.916253924E-1,1.001874828E1
8.892607406E0,2.384447813E0,6.155536175E-1,1.000498962E1
8.902607406E0,2.288136721E0,6.508477330E-1,9.722038269E0
8.912607406E0,2.259422779E0,6.610172391E-1,9.588040352E0
8.922607406E0,2.273779631E0,6.323033571E-1,9.631111145E0
8.932607406E0,2.024327993E0,5.970092416E-1,9.117252350E0
8.973885493E0,-1.503290772E0,-9.579665184E0,1.377667665E0
8.983885493E0,-1.575075507E0,-9.464211464E0,1.305882931E0
8.993885493E0,-1.623530149E0,-9.449256897E0,1.219741344E0
9.003885493E0,-1.590030670E0,-9.458827972E0,1.181456208E0
9.013885493E0,-1.575673699E0,-9.468399048E0,1.205384374E0
9.023885493E0,-1.575673699E0,-9.477970123E0,1.253240824E0
9.033885493E0,-1.622931957E0,-9.502496719E0,1.310668588E0
9.043885493E0,-1.484148264E0,-9.497711182E0,1.349551916E0
9.053885493E0,-1.541576028E0,-9.564710617E0,1.277169108E0
9.063885493E0,-1.541576028E0,-9.526425362E0,1.277169108E0
9.073885493E0,-1.512862086E0,-9.545567513E0,1.291526079E0
9.083885493E0,-1.522433400E0,-9.588638306E0,1.271785259E0
9.093885493E0,-1.527219057E0,-9.583254814E0,1.257428288E0
9.103885493E0,-1.566102386E0,-9.607182503E0,1.185643673E0
9.113885493E0,-1.489532113E0,-9.635896683E0,1.195214868E0
9.123885493E0,-1.479960799E0,-9.626325607E0,1.204786181E0
9.133885493E0,-1.465603828E0,-9.650253296E0,1.233500123E0
9.143885493E0,-1.427318692E0,-9.712467194E0,1.266999602E0
9.153885493E0,-1.465603828E0,-9.659825325E0,1.228714466E0
9.163885493E0,-1.508674622E0,-9.611968994E0,1.257428288E0
9.173885493E0,-1.512862086E0,-9.574281693E0,1.286740422E0
9.183885493E0,-1.555932879E0,-9.564710617E0,1.329811215E0
9.193885493E0,-1.546361685E0,-9.526425362E0,1.267597795E0
9.203885493E0,-1.518245935E0,-9.540184021E0,1.214955688E0
9.213885493E0,-1.489532113E0,-9.577870369E0,1.147956610E0
9.223885493E0,-1.475175142E0,-9.573084831E0,1.095314622E0
9.233885493E0,-1.484746456E0,-9.577870369E0,1.119242787E0
9.243885493E0,-1.475175142E0,-9.583254814E0,1.258026481E0
9.253885493E0,-1.470389485E0,-9.631111145E0,1.238285661E0
9.263885493E0,-1.503889084E0,-9.626325607E0,1.200000525E0
9.273885493E0,-1.542174220E0,-9.601799011E0,1.166501045E0
9.283885493E0,-1.537388563E0,-9.592825890E0,1.195214868E0
9.293885493E0,-1.508674622E0,-9.573683739E0,1.200598717E0
9.303885493E0,-1.479960799E0,-9.607182503E0,1.195214868E0
9.313885493E0,-1.465603828E0,-9.631111145E0,1.200000525E0
9.323885493E0,-1.465603828E0,-9.673583984E0,1.176072359E0
9.333885493E0,-1.436890006E0,-9.687940598E0,1.156929731E0
9.343885493E0,-1.441675663E0,-9.606584549E0,1.143171072E0
9.353885493E0,-1.499103427E0,-9.554540634E0,1.210170031E0
9.363885493E0,-1.527219057E0,-9.555138588E0,1.296311617E0
9.373885493E0,-1.555932879E0,-9.746564865E0,1.280758262E0
9.383885493E0,-1.561316729E0,-9.741181374E0,1.189232826E0
9.393885493E0,-1.575673699E0,-9.678369522E0,1.089332461E0
9.403885493E0,-1.518245935E0,-9.601799011E0,1.085145116E0
9.413885493E0,-1.475175142E0,-9.649655342E0,1.109073281E0
9.423885493E0,-1.513460279E0,-9.707083702E0,1.079761267E0
9.433885493E0,-1.479960799E0,-9.677771568E0,1.022931695E0
9.443885493E0,-1.436890006E0,-9.596415520E0,1.023529887E0
9.453885493E0,-1.412961721E0,-9.582057953E0,1.052243710E0
9.463885493E0,-1.475175142E0,-9.601799011E0,1.128215909E0
9.473885493E0,-1.551745534E0,-9.650253296E0,1.190429211E0
9.483885493E0,-1.579861164E0,-9.640682220E0,1.232901812E0
9.493885493E0,-1.604387641E0,-9.635896683E0,1.185045362E0
9.503885493E0,-1.642672777E0,-9.740582466E0,1.112662554E0
9.513885493E0,-1.642672777E0,-9.788438797E0,1.116850019E0
9.523885493E0,-1.685145378E0,-9.812965393E0,1.150349498E0
9.533885493E0,-1.737787485E0,-9.769296646E0,1.135992527E0
9.543885493E0,-1.695314884E0,-9.654440880E0,1.136590719E0
9.553885493E0,-1.628315806E0,-9.587442398E0,1.147358418E0
9.563885493E0,-1.488933921E0,-9.660423279E0,1.300499082E0
9.573885493E0,-1.402792215E0,-9.722636223E0,1.362712502E0
9.583885493E0,-1.359721422E0,-9.660423279E0,1.310668588E0
9.593885493E0,-1.316650629E0,-9.598209381E0,1.383051515E0
9.603885493E0,-1.316650629E0,-9.579067230E0,1.354337573E0
9.613885493E0,-1.259222865E0,-9.655637741E0,1.397408366E0
9.623885493E0,-1.235294700E0,-9.594022751E0,1.435693622E0
9.633885493E0,-1.125224829E0,-9.493523598E0,1.508674622E0
9.643885493E0,-1.049252748E0,-9.445667267E0,1.451845169E0
9.653885493E0,-1.006181955E0,-9.430712700E0,1.409372568E0
9.663885493E0,-9.631111026E-1,-9.527023315E0,1.499701619E0
9.673885493E0,-9.577272534E-1,-9.686744690E0,1.791027784E0
9.683885493E0,-1.086341500E0,-9.597013474E0,1.948953986E0
9.693885493E0,-1.210768223E0,-9.448657990E0,1.963909149E0
9.703885493E0,-1.301695466E0,-9.234500885E0,2.132004976E0
9.713885493E0,-1.329811215E0,-9.001200676E0,2.248655081E0
9.723885493E0,-1.238883972E0,-8.824729919E0,2.369492531E0
9.733885493E0,-1.191027522E0,-8.748159409E0,2.399402857E0
9.743885493E0,-1.272383451E0,-8.919844627E0,2.277967215E0
9.753885493E0,-1.253839016E0,-9.139386177E0,2.204986095E0
9.763885493E0,-1.219741344E0,-9.469595909E0,2.236690998E0
9.773885493E0,-1.502692580E0,-9.506086349E0,1.880758643E0
9.783885493E0,-1.942971945E0,-9.504291534E0,1.510469317E0
9.793885493E0,-2.330011129E0,-9.376275063E0,1.725225091E0
9.803885493E0,-2.687737942E0,-9.299705505E0,2.428116798E0
9.813885493E0,-2.811566591E0,-9.072386742E0,2.721237659E0
9.823885493E0,-2.687737942E0,-8.739784241E0,2.398206472E0
9.833885493E0,-2.335394859E0,-8.896514893E0,1.541576028E0
9.843885493E0,-1.622931957E0,-9.459425926E0,1.262812138E0
9.853885493E0,-1.456032634E0,-9.777072906E0,8.877372146E-1
9.863885493E0,-1.581057549E0,-9.939187050E0,7.334001660E-1
9.873885493E0,-1.704886079E0,-1.001755238E1,1.009771109E0
9.883885493E0,-1.880758643E0,-1.020778179E1,1.511067510E0
9.893885493E0,-1.570289850E0,-9.642477036E0,1.477568030E0
9.903885493E0,-1.456032634E0,-8.890532494E0,1.405783296E0
9.913885493E0,-1.441675663E0,-8.594420433E0,1.484746456E0
9.923885493E0,-1.259821177E0,-8.504091263E0,1.615155339E0
9.933885493E0,-1.115055323E0,-8.803194046E0,2.078166485E0
9.943885493E0,-1.057029366E0,-8.676973343E0,2.529213428E0
9.953885493E0,-1.157527924E0,-8.648259163E0,2.543570518E0
9.963885493E0,-1.425524116E0,-8.891729355E0,2.378465652E0
9.973885493E0,-1.592423439E0,-9.036494255E0,2.577668190E0
9.983885493E0,-1.677966833E0,-8.781061172E0,3.048455954E0
9.993885493E0,-1.586441398E0,-8.397012711E0,3.611367464E0
1.000388549E1,-1.681556106E0,-8.073383331E0,3.895515203E0
1.001388549E1,-1.610369682E0,-7.527221680E0,3.745963812E0
1.002388549E1,-1.806581140E0,-7.535596848E0,3.525225878E0
1.003388549E1,-1.758724689E0,-7.411767960E0,3.707678795E0
1.004388549E1,-1.615155339E0,-6.991827965E0,3.907479286E0
1.005388549E1,-1.486541033E0,-6.789036274E0,3.569493294E0
1.006388549E1,-1.335195065E0,-6.425925255E0,2.925823927E0
1.007388549E1,-1.631905079E0,-7.055835724E0,2.599801779E0
1.008388549E1,-2.127817631E0,-7.891529083E0,3.028116941E0
1.009388549E1,-2.676970243E0,-8.463413239E0,3.333800077E0
1.010388549E1,-2.413759947E0,-8.062616348E0,3.576671600E0
1.011388549E1,-1.654038668E0,-7.558926582E0,3.486940861E0
1.012388549E1,-8.219345808E-1,-7.166503906E0,3.583850145E0
1.013388549E1,-1.860419661E-1,-6.887740135E0,3.454039574E0
1.014388549E1,2.153540403E-1,-6.649055958E0,3.643670797E0
1.015388549E1,2.057827413E-1,-6.256632805E0,3.602992773E0
1.016388549E1,-6.161518395E-2,-6.019743443E0,4.000799656E0
1.017388549E1,-1.663011760E-1,-5.763113499E0,4.294518471E0
1.018388549E1,-1.992024779E-1,-5.331208706E0,4.857429981E0
1.019388549E1,-3.326023519E-1,-5.017150879E0,5.102694511E0
1.020388549E1,-4.187439680E-1,-5.226522923E0,4.895116806E0
1.021388549E1,-4.761717021E-1,-5.746363640E0,4.642673969E0
1.022388549E1,5.024927482E-2,-6.087340832E0,4.829314232E0
1.023388549E1,3.714857101E-1,-5.967101574E0,5.520840168E0
1.024388549E1,4.019941986E-1,-5.806782246E0,6.695117950E0
1.025388549E1,-1.974078715E-1,-5.766702652E0,8.594420433E0
1.026388549E1,-4.528416991E-1,-6.054439545E0,1.016710377E1
1.027388549E1,-3.020938635E-1,-7.395616531E0,1.114516926E1
1.028388549E1,-1.938186288E-1,-9.309874535E0,9.658628464E0
1.029388549E1,-7.597211748E-2,-1.032084274E1,8.288139343E0
1.030388549E1,4.941178858E-1,-9.208179474E0,6.477969170E0
1.031388549E1,2.575275421E0,-8.490332603E0,4.512863636E0
1.032388549E1,2.267797709E0,-8.484351158E0,3.486940861E0
1.033388549E1,5.599204898E-1,-9.348159790E0,2.952743053E0
1.034388549E1,2.015354872E0,-8.206783295E0,4.287340164E0
1.035388549E1,3.119642496E0,-6.684350014E0,7.293921471E0
1.036388549E1,4.031308174E0,-3.785445452E0,1.296132183E1
1.037388549E1,3.112463951E0,-1.152144074E0,1.872084618E1
1.038388549E1,1.134197950E0,-3.900899172E0,1.873879242E1
1.039388549E1,2.035095692E0,-3.966103554E0,2.010688782E1
1.040388549E1,5.689534187E0,-2.863012314E0,2.098505402E1
1.041388549E1,1.072702408E1,-2.488535643E0,1.989572144E1
1.042388549E1,1.419302750E1,-8.949156404E-1,1.430728436E1
1.043388549E1,1.306182098E1,-8.147560954E-1,9.783055305E0
1.044388549E1,1.142752266E1,-1.345962763E0,1.031904793E1
1.045388549E1,1.177328587E1,-1.568495274E0,1.375693512E1
1.046388549E1,6.929016113E0,-1.684547186E0,1.640519142E1
1.047388549E1,3.805186272E0,-1.365105271E0,1.846840286E1
1.048388549E1,3.727419376E0,-1.207179070E0,1.761655807E1
1.049388549E1,4.621138573E0,9.343972206E-1,1.519203091E1
1.050388549E1,5.212165833E0,2.106282234E0,1.158126163E1
1.051388549E1,5.717649937E0,3.142374277E0,8.242675781E0
1.052388549E1,6.904489517E0,3.210569859E0,5.925227165E0
1.053388549E1,7.350152969E0,3.410370588E0,3.859622955E0
1.054388549E1,8.124231339E0,5.315655708E0,3.903291941E0
1.055388549E1,8.614161491E0,3.792025566E0,5.015954494E0
1.056388549E1,8.452047348E0,2.366501570E0,4.886742115E0
1.057388549E1,8.772088051E0,2.231307030E0,4.350749969E0
1.058388549E1,8.234899521E0,3.311666489E0,3.695116282E0
1.059388549E1,8.074580193E0,2.967698336E0,2.049452543E0
1.060388549E1,7.627122402E0,2.938984394E0,5.347958803E-1
1.061388549E1,6.965506554E0,3.232105255E0,-4.863412082E-1
1.062388549E1,6.552146435E0,3.721437454E0,-1.499701619E0
1.063388549E1,6.958328247E0,4.348356724E0,-1.436890006E0
1.064388549E1,8.721240044E0,5.344369411E0,-2.041077614E0
1.065388549E1,1.210469151E1,7.098906517E0,-2.860021353E0
1.066388549E1,1.515075493E1,8.892925262E0,-2.338984251E0
1.067388549E1,1.371565914E1,9.687342644E0,5.096712112E-1
1.068388549E1,1.127498055E1,1.091186905E1,2.605783939E0
1.069388549E1,9.784850121E0,1.151186943E1,3.652643681E0
1.070388549E1,8.478368759E0,1.135573769E1,3.143570662E0
1.071388549E1,6.053841114E0,9.847661972E0,5.198407173E0
1.072388549E1,4.488337040E0,8.770293236E0,6.626324177E0
1.073388549E1,2.447259426E0,7.877171993E0,6.790232658E0
1.074388549E1,9.020941257E-1,7.296314240E0,6.129215240E0
1.075388549E1,7.238288224E-2,7.016354084E0,4.869992256E0
1.076388549E1,-2.500499785E-1,6.770491600E0,3.588635683E0
1.077388549E1,-5.431707501E-1,6.428916454E0,2.354537487E0
1.078388549E1,-8.596215248E-1,6.192026615E0,1.920838356E0
1.079388549E1,-8.644071817E-1,6.464210510E0,1.984846354E0
1.080388549E1,-6.400800347E-1,6.790830612E0,1.858624935E0
1.081388549E1,-2.237289101E-1,6.703492641E0,2.099103689E0
1.082388549E1,1.019940615E0,6.339783669E0,2.221137524E0
1.083388549E1,1.378265858E0,6.493522644E0,2.166102648E0
1.084388549E1,2.005185366E0,6.537191391E0,2.201995134E0
1.085388549E1,2.933002472E0,6.631109715E0,2.580060959E0
1.086388549E1,3.785445452E0,6.717849731E0,3.345165968E0
1.087388549E1,4.365106583E0,6.620342255E0,3.725026608E0
1.088388549E1,4.804787636E0,6.309873104E0,3.729214191E0
1.089388549E1,5.240281582E0,5.985047817E0,3.643072367E0
1.090388549E1,5.823532104E0,5.904888153E0,3.519842148E0
1.091388549E1,5.827719688E0,5.403591633E0,3.296711445E0
1.092388549E1,5.693721294E0,5.112864017E0,3.093321562E0
1.093388549E1,5.770291805E0,5.056632519E0,2.968894720E0
1.094388549E1,5.740979671E0,5.487938881E0,2.851646423E0
1.095388549E1,5.276174068E0,6.303293228E0,2.553141832E0
1.096388549E1,5.085346222E0,6.970890522E0,2.858226538E0
1.097388549E1,5.167300701E0,7.623532772E0,3.375076294E0
1.098388549E1,5.411368370E0,7.960322857E0,3.818944931E0
1.099388549E1,5.454439163E0,8.070392609E0,3.833899975E0
1.100388549E1,4.679164886E0,7.647460938E0,3.282354355E0
1.101388549E1,4.028316975E0,6.912864685E0,2.844467878E0
1.102388549E1,3.953541279E0,6.142973900E0,3.471387386E0
1.103388549E1,3.908077478E0,6.005984783E0,4.734199524E0
1.104388549E1,3.900899172E0,5.743372440E0,6.150152206E0
1.105388549E1,3.917648792E0,5.900700569E0,7.702496052E0
1.106388549E1,3.489931822E0,5.828916073E0,9.141778946E0
1.107388549E1,2.931805849E0,4.762913704E0,9.664610863E0
1.108388549E1,3.104089260E0,3.873381615E0,9.582656860E0
1.109388549E1,3.566502094E0,3.955335855E0,8.785248756E0
1.110388549E1,3.765704632E0,4.845465660E0,8.112266541E0
1.111388549E1,3.960719585E0,6.579664230E0,7.865208149E0
1.112388549E1,3.873381615E0,8.060222626E0,7.572685242E0
1.113388549E1,2.592025042E0,8.374280930E0,7.665407181E0
1.114388549E1,1.268794179E0,8.416155815E0,8.436494827E0
1.115388549E1,3.714857101E-1,6.660421848E0,8.934201241E0
1.116388549E1,-1.344766378E0,4.689932346E0,8.507680893E0
1.117388549E1,-2.950948477E0,3.004786968E0,8.414361000E0
1.118388549E1,-3.442673683E0,1.549352646E0,8.408378601E0
1.119388549E1,-3.385245800E0,8.608179688E-1,8.365905762E0
1.120388549E1,-2.453241348E0,-5.503492057E-2,7.999206066E0
1.121388549E1,-1.300499082E0,-1.100698471E0,7.771887779E0
1.122388549E1,1.292124242E-1,-1.372882009E0,7.823931694E0
1.123388549E1,1.403390527E0,-9.589236975E-1,9.177073479E0
1.124388549E1,2.794218540E0,-4.570291340E-1,1.165125179E1
1.125388549E1,3.704687595E0,-3.505485058E-1,1.310668564E1
1.126388549E1,5.416153908E0,-2.882753134E0,1.498385525E1
1.127388549E1,6.916453838E0,-5.712863922E0,1.612582970E1
1.128388549E1,7.975277901E0,-9.978070259E0,1.642792320E1
1.129388549E1,8.652446747E0,-1.256770229E1,2.039821434E1
1.130388549E1,8.422736168E0,-1.362891960E1,2.546142769E1
1.131388549E1,4.653441906E0,-1.254676533E1,2.489851570E1
1.132388549E1,8.075776696E-1,-9.669994354E0,2.203849411E1
1.133388549E1,-2.176870346E0,-5.903691769E0,1.716192245E1
1.134388549E1,-3.606581926E0,-2.959323406E0,1.225723362E1
1.135388549E1,-4.315455437E0,-1.322632670E0,9.162117958E0
1.136388549E1,-4.083351612E0,-1.503889084E0,7.600800991E0
1.137388549E1,-2.553141832E0,2.078166485E0,5.919843197E0
1.138388549E1,-1.771286964E0,3.249453068E0,4.709673405E0
1.139388549E1,-1.162313581E0,3.503092289E0,3.233899832E0
1.140388549E1,-7.812566161E-1,3.595814228E0,2.225325108E0
1.141388549E1,-4.911268353E-1,3.167499065E0,1.150947690E0
1.142388549E1,-2.027917206E-1,2.416750908E0,1.884945989E0
1.143388549E1,3.242274821E-1,1.457827210E0,2.187638044E0
1.144388549E1,1.329213023E0,1.010967612E0,2.595614433E0
1.145388549E1,2.362912416E0,8.991031051E-1,3.034697294E0
1.146388549E1,3.771088600E0,8.195417523E-1,4.413561344E0
1.147388549E1,4.772484779E0,2.033899166E-2,5.350949764E0
1.148388549E1,4.932205677E0,-4.402793646E-1,6.291927338E0
1.149388549E1,5.009374142E0,-7.118647099E-1,6.826723099E0
1.150388549E1,5.178068161E0,-1.102493048E0,7.323233604E0
1.151388549E1,5.546562672E0,-1.265803218E0,7.509873867E0
1.152388549E1,5.785845280E0,-1.266999602E0,7.716853142E0
1.153388549E1,5.839085579E0,-9.391828775E-1,8.063812256E0
1.154388549E1,6.164509296E0,-3.248256743E-1,8.658429146E0
1.155388549E1,6.217749596E0,1.241276741E0,9.204590797E0
1.156388549E1,6.494120598E0,1.396211982E0,8.981459618E0
1.157388549E1,6.671189308E0,8.620143533E-1,8.710473061E0
1.158388549E1,6.588637352E0,1.204786181E0,8.238488197E0
1.159388549E1,6.937989235E0,1.334596872E0,8.188239098E0
1.160388549E1,7.311867714E0,1.584048629E0,8.875576973E0
1.161388549E1,7.686942577E0,1.317248821E0,1.025444126E1
1.162388549E1,9.139984131E0,1.256830096E0,1.243848991E1
1.163388549E1,9.766305923E0,8.572286963E-1,1.518724537E1
1.164388549E1,5.799603939E0,-8.835497499E-1,1.895294952E1
1.165388549E1,1.625923038E0,-1.456032634E0,2.196491623E1
1.166388549E1,-1.534397483E0,-3.123231649E0,2.178365898E1
1.167388549E1,-1.791625977E0,-2.558525562E0,1.952124596E1
1.168388549E1,-2.282752752E0,-1.182054400E0,1.521895027E1
1.169388549E1,-8.847461939E-1,-2.003988922E-1,1.070070267E1
1.170388549E1,-8.668000102E-1,1.660618901E0,7.829914093E0
1.171388549E1,-5.814558864E-1,2.225325108E0,4.061218262E0
1.172388549E1,9.840483069E-1,1.974078655E0,2.413759947E0
1.173388549E1,9.966106415E-1,2.334198475E0,1.424327731E0
1.174388549E1,7.214360237E-1,2.455634356E0,2.597409010E0
1.175388549E1,-3.110669367E-2,2.535195589E0,4.304687977E0
1.176388549E1,-6.173482537E-1,2.430509567E0,5.690132141E0
1.177388549E1,-1.193420291E0,2.670390129E0,6.991827965E0
1.178388549E1,-3.942175210E-1,1.677966833E0,7.405188084E0
1.179388549E1,3.050848842E-1,7.812566161E-1,7.809575081E0
1.180388549E1,1.027119160E0,4.564309120E-1,7.752745152E0
1.181388549E1,1.778465390E0,1.345962733E-1,8.041080475E0
1.182388549E1,2.482553482E0,-3.595215976E-1,8.365905762E0
1.183388549E1,2.167299032E0,-6.334998012E-1,8.506484032E0
1.184388549E1,1.651645780E0,-6.323033571E-1,8.940781593E0
1.185388549E1,1.614557028E0,-5.790630579E-1,9.683155060E0
1.186388549E1,1.712662816E0,-5.844469070E-1,1.123968601E1
1.187388549E1,1.637887120E0,-4.001995921E-1,1.243250847E1
1.188388549E1,1.433300734E0,-1.304088384E-1,1.283091354E1
1.189388549E1,5.916253924E-1,2.506481707E-1,1.303609753E1
1.190388549E1,8.039883971E-1,9.595218897E-1,1.147119141E1
1.191388549E1,7.274180651E-1,1.010369420E0,1.168654537E1
1.192388549E1,1.182652593E0,8.213363886E-1,1.211306667E1
1.193388549E1,1.579861164E0,6.011967063E-1,1.220877934E1
1.194388549E1,2.020140409E0,3.433700502E-1,1.214656639E1
1.195388549E1,2.377867460E0,1.920240223E-1,1.189831066E1
1.196388549E1,2.587837696E0,1.704886109E-1,1.153041458E1
1.197388549E1,2.658426046E0,1.471585929E-1,1.070668507E1
1.198388549E1,2.757728100E0,2.261217386E-1,1.032921696E1
1.199388549E1,2.790031195E0,4.462614357E-1,9.579067230E0
1.200388549E1,2.879163742E0,7.537391186E-1,8.690732002E0
1.201388549E1,2.839682341E0,1.136590719E0,7.936394691E0
1.202388549E1,2.772084951E0,1.368096352E0,7.616952896E0
1.203388549E1,2.647658348E0,1.583450437E0,7.593622684E0
1.204388549E1,2.599801779E0,1.549950838E0,7.627122402E0
1.205388549E1,2.303689957E0,1.415354609E0,7.701299667E0
1.206388549E1,2.136790514E0,1.231107235E0,7.992027760E0
1.207388549E1,2.123031855E0,1.348953724E0,8.270193100E0
1.208388549E1,2.209173441E0,9.559326172E-1,8.397610664E0
1.209388549E1,2.166700840E0,5.060819983E-1,8.389236450E0
1.210388549E1,2.056631088E0,7.118647546E-2,8.324031830E0
1.211388549E1,1.880160451E0,-2.751746029E-2,8.696115494E0
1.212388549E1,1.838286042E0,5.084748194E-2,9.160921097E0
1.213388549E1,1.948355794E0,1.680957973E-1,9.550353050E0
1.214388549E1,2.054238319E0,3.188436031E-1,1.001575756E1
1.215388549E1,2.121835470E0,3.403790295E-1,1.038485050E1
1.216388549E1,2.203789711E0,2.386840582E-1,1.053799057E1
1.217388549E1,2.231905222E0,1.740778536E-1,1.023589706E1
1.218388549E1,2.164308071E0,1.034895778E-1,9.976874352E0
1.219388549E1,1.963909149E0,-5.024927482E-2,1.010907745E1
1.220388549E1,1.825723648E0,-1.866401732E-1,1.038544846E1
1.221388549E1,1.850848317E0,-4.576273263E-1,1.085803127E1
1.222388549E1,2.070987940E0,-8.739784956E-1,1.092802143E1
1.223388549E1,1.788036704E0,1.459621787E-1,1.084247780E1
1.224388549E1,1.646860242E0,6.131607890E-1,9.561120987E0
1.225388549E1,1.163509965E0,4.199403822E-1,9.055637360E0
1.226388549E1,1.107278705E0,2.949153781E-1,9.820742607E0
1.227388549E1,1.007378340E0,4.797609448E-1,1.009890842E1
1.228388549E1,8.877372146E-1,6.041877270E-1,1.009950638E1
1.229388549E1,8.590233326E-1,7.046862841E-1,1.011924744E1
1.230388549E1,8.536394835E-1,8.129615188E-1,9.611968994E0
1.231388549E1,8.626125455E-1,8.488538265E-1,9.301499367E0
1.232388549E1,9.529415965E-1,7.010970116E-1,9.195617676E0
1.233388549E1,9.672985673E-1,6.436693072E-1,9.185447693E0
1.234388549E1,9.625129104E-1,6.299105883E-1,9.128020287E0
1.235388549E1,9.002995491E-1,4.145565331E-1,9.068798065E0
1.236388549E1,1.001396298E0,5.617151260E-1,9.285347939E0
1.237388549E1,1.097109199E0,5.802595019E-1,9.357730865E0
1.238388549E1,1.049252748E0,4.133601189E-1,9.279964447E0
1.239388549E1,9.008977413E-1,2.219343036E-1,9.268598557E0
1.240388549E1,8.961120844E-1,3.984049559E-1,9.375079155E0
1.241388549E1,8.105686903E-1,2.590230405E-1,9.479166985E0
1.242388549E1,8.009973764E-1,2.243271172E-1,9.627521515E0
1.243388549E1,8.111668825E-1,2.033899277E-1,9.924231529E0
1.244388549E1,6.580262184E-1,-1.824527234E-1,9.581459999E0
1.245388549E1,9.068797827E-1,2.602194548E-1,1.000139999E1
1.246388549E1,9.260223508E-1,2.644068897E-1,1.015992451E1
1.247388549E1,1.069591761E0,3.122633696E-1,1.018923664E1
1.248388549E1,1.155733347E0,3.026920557E-1,1.018983555E1
1.249388549E1,1.208375454E0,2.973082066E-1,1.021854877E1
1.250388549E1,1.150947690E0,2.452643216E-1,1.012223816E1
1.251388549E1,1.073779106E0,2.805584669E-1,9.824930191E0
1.252388549E1,1.030708313E0,3.445664644E-1,9.562317848E0
1.253388549E1,1.107278705E0,3.397808075E-1,9.562317848E0
1.254388549E1,1.140778184E0,2.961117923E-1,9.691530228E0
1.255388549E1,1.126421213E0,2.769692242E-1,9.643673897E0
1.256388549E1,1.101894855E0,2.404786795E-1,9.437292099E0
1.257388549E1,1.073180914E0,2.793620527E-1,9.341579437E0
1.258388549E1,1.030110121E0,2.829512656E-1,9.470791817E0
1.259388549E1,9.535398483E-1,2.596212626E-1,9.340981483E0
1.260388549E1,9.535398483E-1,2.596212626E-1,9.340981483E0
1.261388549E1,8.865407705E-1,1.878365725E-1,9.326025963E0
1.262388549E1,9.248259664E-1,2.021935135E-1,9.412167549E0
1.263388549E1,1.088136077E0,2.871387303E-1,9.537791252E0
1.264388549E1,1.293918848E0,4.151547253E-1,9.831509590E0
1.265388549E1,1.538584948E0,4.749752879E-1,1.023529911E1
1.266388549E1,1.451845169E0,5.377869010E-1,1.011565781E1
1.267388549E1,1.236491084E0,4.193421602E-1,9.898509026E0
1.268388549E1,1.183848977E0,2.967100143E-1,9.638887405E0
1.269388549E1,1.169492126E0,2.386840582E-1,9.667003632E0
1.270388549E1,1.255633712E0,3.726821244E-1,9.735796928E0
1.271388549E1,1.322632670E0,4.719842672E-1,9.851250648E0
1.272388549E1,1.341775298E0,5.395814776E-1,9.784850121E0
1.273388549E1,1.369890928E0,5.736792088E-1,9.698708534E0
1.274388549E1,1.408774376E0,5.060819983E-1,9.780064583E0
1.275388549E1,1.427318692E0,5.353940725E-1,9.736993790E0
1.276388549E1,1.466202021E0,5.491527915E-1,9.847661972E0
1.277388549E1,1.446461320E0,5.204389095E-1,9.775279045E0
1.278388549E1,1.422533035E0,4.348955154E-1,9.745966911E0
1.279388549E1,1.370489120E0,3.726821244E-1,9.731011391E0
1.280388549E1,1.356132269E0,3.439682424E-1,9.750154495E0
1.281388549E1,1.365105271E0,2.919243574E-1,9.649057388E0
1.282388549E1,1.341177106E0,3.158525825E-1,9.610772133E0
1.283388549E1,1.355534077E0,3.583251834E-1,9.692726135E0
1.284388549E1,1.408774376E0,3.672982752E-1,9.774082184E0
1.285388549E1,1.518245935E0,3.631108403E-1,9.760323524E0
1.286388549E1,1.561316729E0,4.109672904E-1,9.713065147E0
1.287388549E1,1.566102386E0,4.354937077E-1,9.665208817E0
1.288388549E1,1.561316729E0,4.013960063E-1,9.693922997E0
1.289388549E1,1.508674622E0,3.062812984E-1,9.649655342E0
1.290388549E1,1.518245935E0,3.643072546E-1,9.544969559E0
1.291388549E1,1.570888042E0,4.115654826E-1,9.612566948E0
1.292388549E1,1.604387641E0,5.072783828E-1,9.651450157E0
1.293388549E1,1.590030670E0,5.072783828E-1,9.646664619E0
1.294388549E1,1.556531072E0,4.971089065E-1,9.704092026E0
1.295388549E1,1.518245935E0,4.833501875E-1,9.660423279E0
1.296388549E1,1.537388563E0,4.061816335E-1,9.756135941E0
1.297388549E1,1.527817249E0,4.067798555E-1,9.655637741E0
1.298388549E1,1.508674622E0,3.876372576E-1,9.635896683E0
1.299388549E1,1.518245935E0,4.121637046E-1,9.549755096E0
1.300388549E1,1.546959877E0,4.540380836E-1,9.713065147E0
1.301388549E1,1.556531072E0,4.211367965E-1,9.669994354E0
1.302388549E1,1.513460279E0,4.259224236E-1,9.631709099E0
1.303388549E1,1.441675663E0,4.163511395E-1,9.635896683E0
1.304388549E1,1.417747378E0,3.972085714E-1,9.635896683E0
1.305388549E1,1.436890006E0,4.211367965E-1,9.659825325E0
1.306388549E1,1.427318692E0,3.732803464E-1,9.606584549E0
1.307388549E1,1.446461320E0,4.019941986E-1,9.669396400E0
1.308388549E1,1.451246977E0,4.205385745E-1,9.731609344E0
1.309388549E1,1.494317770E0,4.588237405E-1,9.756135941E0
1.310388549E1,1.532602906E0,4.636093974E-1,9.751350403E0
1.311388549E1,1.613958836E0,4.498506486E-1,9.689735413E0
1.312388549E1,1.590030670E0,4.115654826E-1,9.650852203E0
1.313388549E1,1.542174220E0,3.397808075E-1,9.616754532E0
1.314388549E1,1.551745534E0,3.738785386E-1,9.578469276E0
1.315388549E1,1.537388563E0,3.972085714E-1,9.626325607E0
1.316388549E1,1.508674622E0,4.115654826E-1,9.655039787E0
1.317388549E1,1.499103427E0,4.205385745E-1,9.722636223E0
1.318388549E1,1.523031592E0,4.211367965E-1,9.655637741E0
1.319388549E1,1.542174220E0,4.540380836E-1,9.703494072E0
1.320388549E1,1.566102386E0,4.540380836E-1,9.708279610E0
1.321388549E1,1.575673699E0,4.354937077E-1,9.679565430E0
1.322388549E1,1.542174220E0,4.163511395E-1,9.650852203E0
1.323388549E1,1.508674622E0,4.067798555E-1,9.669396400E0
1.324388549E1,1.460818172E0,3.870390654E-1,9.678967476E0
1.325388549E1,1.436890006E0,3.876372576E-1,9.626325607E0
1.326388549E1,1.446461320E0,4.307080805E-1,9.602396965E0
1.327388549E1,1.527817249E0,4.450650215E-1,9.598209381E0
1.328388549E1,1.537388563E0,4.594219327E-1,9.607781410E0
1.329388549E1,1.566102386E0,4.642075896E-1,9.646066666E0
1.330388549E1,1.585245013E0,4.546363056E-1,9.684351921E0
1.331388549E1,1.566102386E0,4.402793646E-1,9.684351921E0
1.332388549E1,1.556531072E0,4.019941986E-1,9.660423279E0
1.333388549E1,1.556531072E0,4.019941986E-1,9.607781410E0
1.334388549E1,1.518245935E0,4.737788737E-1,9.607781410E0
1.335388549E1,1.527817249E0,5.066801906E-1,9.728020668E0
1.336388549E1,1.537388563E0,4.683950245E-1,9.693922997E0
1.337388549E1,1.513460279E0,4.205385745E-1,9.727422714E0
1.338388549E1,1.470389485E0,3.541377485E-1,9.640682220E0
1.339388549E1,1.475175142E0,3.254238665E-1,9.587442398E0
1.340388549E1,1.436890006E0,3.302095234E-1,9.606584549E0
1.341388549E1,1.546959877E0,4.013960063E-1,9.732208252E0
1.342388549E1,1.566102386E0,3.966103494E-1,9.775279045E0
1.343388549E1,1.546959877E0,3.966103494E-1,9.732208252E0
1.344388549E1,1.542174220E0,4.348955154E-1,9.698708534E0
1.345388549E1,1.566102386E0,4.594219327E-1,9.646066666E0
1.346388549E1,1.518245935E0,5.413761139E-1,9.565308571E0
1.347388549E1,1.523031592E0,4.791627228E-1,9.540781975E0
1.348388549E1,1.637887120E0,3.888336718E-1,9.507282257E0
1.349388549E1,1.666600943E0,3.541377485E-1,9.646066666E0
1.350388549E1,1.613958836E0,2.919243574E-1,9.669396400E0
1.351388549E1,1.618744493E0,3.110669553E-1,9.626325607E0
1.352388549E1,1.609173179E0,3.014956415E-1,9.650253296E0
1.353388549E1,1.618744493E0,3.391826153E-1,9.736394882E0
1.354388549E1,1.609173179E0,4.295116663E-1,9.818349838E0
1.355388549E1,1.489532113E0,4.588237405E-1,9.717850685E0
1.356388549E1,1.494317770E0,4.881358147E-1,9.622138023E0
1.357388549E1,1.537388563E0,4.444667995E-1,9.741779327E0
1.358388549E1,1.580459356E0,4.630111754E-1,9.838089943E0
1.359388549E1,1.570888042E0,4.444667995E-1,9.770493507E0
1.360388549E1,1.599601984E0,3.876372576E-1,9.689137459E0
1.361388549E1,1.623530149E0,2.727817893E-1,9.693324089E0
1.362388549E1,1.613958836E0,2.829512656E-1,9.583254814E0
1.363388549E1,1.436890006E0,3.792623878E-1,9.410373688E0
1.366911882E1,-2.746960402E0,-9.316454887E0,1.278365493E0
1.367911882E1,-2.876172781E0,-9.301499367E0,1.130010486E0
1.368911882E1,-2.895315409E0,-9.219545364E0,1.024726272E0
1.369911882E1,-2.938386202E0,-9.257830620E0,1.067797065E0
1.370911882E1,-2.952743053E0,-9.263215065E0,1.120439172E0
1.371911882E1,-2.986242771E0,-9.210572243E0,1.134796143E0
1.372911882E1,-3.010170937E0,-9.168100357E0,1.177866936E0
1.373911882E1,-3.000599623E0,-9.177671432E0,1.211366415E0
1.374911882E1,-2.976671457E0,-9.191430092E0,1.173081279E0
1.375911882E1,-3.034099102E0,-9.220144272E0,1.124626637E0
1.376911882E1,-3.029313564E0,-9.263215065E0,1.086341500E0
1.377911882E1,-2.995813847E0,-9.238688469E0,1.048056364E0
1.378911882E1,-2.919243574E0,-9.272188187E0,1.000798106E0
1.379911882E1,-2.943171740E0,-9.262616158E0,1.005583763E0
1.380911882E1,-2.995813847E0,-9.257830620E0,9.858429432E-1
1.381911882E1,-2.919243574E0,-9.257830620E0,1.048654556E0
1.382911882E1,-2.876172781E0,-9.286544800E0,1.072582722E0
1.383911882E1,-2.914458036E0,-9.291928291E0,1.095912814E0
1.384911882E1,-2.876172781E0,-9.291928291E0,1.120439172E0
1.385911882E1,-2.895315409E0,-9.320642471E0,1.138983607E0
1.386911882E1,-2.857030153E0,-9.363713264E0,1.129412293E0
1.387911882E1,-2.818745136E0,-9.330213547E0,1.134796143E0
1.388911882E1,-2.804388046E0,-9.306285858E0,1.163509965E0
1.389911882E1,-2.790031195E0,-9.287142754E0,1.130010486E0
1.390911882E1,-2.818745136E0,-9.291928291E0,1.153938770E0
1.391911882E1,-2.823530674E0,-9.273384094E0,1.220937729E0
1.392911882E1,-2.785245657E0,-9.239884377E0,1.216750264E0
1.393911882E1,-2.770888567E0,-9.330213547E0,1.201795220E0
1.394911882E1,-2.847458839E0,-9.391828537E0,1.067198873E0
1.395911882E1,-2.847458839E0,-9.348757744E0,1.071984529E0
1.396911882E1,-2.857030153E0,-9.300901413E0,1.077368379E0
1.397911882E1,-2.876172781E0,-9.272786140E0,1.125224829E0
1.398911882E1,-2.895315409E0,-9.378668785E0,1.244267821E0
1.399911882E1,-2.928814888E0,-9.407382011E0,1.248455167E0
1.400911882E1,-2.962314367E0,-9.287740707E0,1.220339537E0
1.401911882E1,-2.947957516E0,-9.249456406E0,1.235294700E0
1.402911882E1,-2.947957516E0,-9.250054359E0,1.297508121E0
1.403911882E1,-2.990430117E0,-9.321838379E0,1.316052437E0
1.404911882E1,-3.019742250E0,-9.317052841E0,1.263410330E0
1.405911882E1,-3.043670416E0,-9.317052841E0,1.277767301E0
1.406911882E1,-3.014358282E0,-9.307481766E0,1.320838094E0
1.407911882E1,-3.019742250E0,-9.312267303E0,1.301695466E0
1.408911882E1,-3.053241730E0,-9.339784622E0,1.114457130E0
1.409911882E1,-3.086741209E0,-9.354142189E0,1.109671474E0
1.410911882E1,-3.120240688E0,-9.368498802E0,1.070788145E0
1.411911882E1,-3.038884640E0,-9.324830055E0,1.066600680E0
1.412911882E1,-2.957528830E0,-9.334999084E0,1.100698471E0
1.413911882E1,-2.943171740E0,-9.382855415E0,1.133599758E0
1.414911882E1,-2.914458036E0,-9.397212982E0,1.119242787E0
1.415911882E1,-2.861815929E0,-9.449854851E0,1.171884894E0
1.416911882E1,-2.847458839E0,-9.473783493E0,1.104885817E0
1.417911882E1,-2.713460922E0,-9.459425926E0,1.201196909E0
1.418911882E1,-2.684746981E0,-9.494122505E0,1.316052437E0
1.419911882E1,-2.698505640E0,-9.504291534E0,1.426122308E0
1.420911882E1,-2.736790895E0,-9.404989243E0,1.599003673E0
1.421911882E1,-2.793620348E0,-9.311071396E0,1.886740685E0
1.422911882E1,-2.816950560E0,-9.192625999E0,2.136192322E0
1.423911882E1,-2.840878725E0,-9.087940216E0,2.165504456E0
1.424911882E1,-2.740978241E0,-8.886942863E0,2.162513494E0
1.425911882E1,-2.678765059E0,-8.794819832E0,2.000399828E0
1.426911882E1,-2.722434044E0,-8.870193481E0,1.803590059E0
1.427911882E1,-2.947359324E0,-8.968897820E0,1.509871125E0
1.428911882E1,-2.981456995E0,-9.005986214E0,1.341775298E0
1.429911882E1,-2.914458036E0,-8.981459618E0,1.232303619E0
1.430911882E1,-2.885744095E0,-8.808578491E0,1.176072359E0
1.431911882E1,-2.857628345E0,-8.544769287E0,1.048654556E0
1.432911882E1,-2.594418049E0,-8.621937752E0,1.216750264E0
1.433911882E1,-2.393420935E0,-8.397610664E0,1.343569875E0
1.434911882E1,-2.120639086E0,-8.001599312E0,1.567298889E0
1.435911882E1,-1.780858278E0,-7.664210796E0,1.987239242E0
1.436911882E1,-1.828116536E0,-7.575676441E0,2.289333105E0
1.437911882E1,-2.148156643E0,-7.572087288E0,2.493919373E0
1.438911882E1,-2.568096876E0,-7.674380302E0,2.682952404E0
1.439911882E1,-3.041277647E0,-7.706085205E0,3.112463951E0
1.440911882E1,-3.288934708E0,-7.513463020E0,3.668197155E0
1.441911882E1,-3.287738323E0,-7.479365349E0,4.357928276E0
1.442911882E1,-2.756531715E0,-7.293323517E0,4.509274483E0
1.443911882E1,-1.713859200E0,-7.136593342E0,4.806582451E0
1.444911882E1,-8.638089895E-1,-6.822535515E0,4.428516388E0
1.445911882E1,-8.638089895E-1,-6.801598549E0,4.213162422E0
1.446911882E1,-1.663609982E0,-6.960123062E0,3.443271875E0
1.447911882E1,-2.515454769E0,-7.275377274E0,3.145365477E0
1.448911882E1,-3.299104214E0,-7.482954502E0,3.414557934E0
1.449911882E1,-3.643072367E0,-7.215556622E0,3.462414265E0
1.450911882E1,-4.050450325E0,-7.504489899E0,2.865405083E0
1.451911882E1,-4.324428558E0,-7.328019142E0,2.161317110E0
1.452911882E1,-4.807180882E0,-7.462017536E0,2.154138565E0
1.453911882E1,-4.189832687E0,-7.196413994E0,2.598605394E0
1.454911882E1,-3.395415306E0,-6.896114826E0,2.905484915E0
1.455911882E1,-2.983849764E0,-6.516254425E0,3.436093330E0
1.456911882E1,-2.499303341E0,-6.071787357E0,4.312464714E0
1.457911882E1,-2.137987137E0,-5.747560024E0,6.049055576E0
1.458911882E1,-2.155334949E0,-5.505286694E0,7.176074982E0
1.459911882E1,-1.958525300E0,-5.665007591E0,7.481758118E0
1.460911882E1,-1.622931957E0,-6.447460651E0,7.828119278E0
1.461911882E1,-1.535593987E0,-7.637291908E0,8.299505234E0
1.462911882E1,-1.420140266E0,-8.413164139E0,8.434102058E0
1.463911882E1,-2.163709879E0,-9.337391853E0,6.955337048E0
1.464911882E1,-1.357926846E0,-9.484550476E0,8.317451477E0
1.465911882E1,-1.675574064E0,-9.866804123E0,9.721440315E0
1.466911882E1,-1.747956991E0,-1.013659477E1,9.269196510E0
1.467911882E1,-1.126421213E0,-9.805787086E0,9.216554642E0
1.468911882E1,-7.387840152E-1,-9.544969559E0,9.607182503E0
1.469911882E1,-3.427718580E-1,-8.509475708E0,9.462417603E0
1.470911882E1,6.340979785E-2,-7.457231998E0,9.614361763E0
1.471911882E1,-7.064808607E-1,-8.222336769E0,9.395418167E0
1.472911882E1,-1.700698733E0,-9.576076508E0,9.100502968E0
1.473911882E1,-2.938984394E0,-1.123490047E1,8.682954788E0
1.474911882E1,-3.910470486E0,-1.203948689E1,7.913064480E0
1.475911882E1,-4.772484779E0,-1.258505058E1,7.034300327E0
1.476911882E1,-1.928615093E0,-1.041954613E1,7.021139622E0
1.477911882E1,-1.204187989E0,-1.036630630E1,8.508278847E0
1.478911882E1,-1.645065546E0,-1.021496010E1,8.000402451E0
1.479911882E1,-1.776072621E0,-9.524630547E0,7.031907558E0
1.480911882E1,-8.937192559E-1,-7.776673794E0,6.199205399E0
1.481911882E1,6.502495408E-1,-7.195816040E0,6.127420425E0
1.482911882E1,1.747956991E0,-8.781061172E0,7.275377274E0
1.483911882E1,1.278963685E0,-9.117850304E0,6.677769661E0
1.484911882E1,1.142572835E-1,-8.420342445E0,5.226522923E0
1.485911882E1,-1.227517962E0,-8.426324844E0,3.727419376E0
1.486911882E1,-1.612762451E0,-6.295516491E0,2.705085993E0
1.487911882E1,-1.941775560E0,-5.400002480E0,3.379862070E0
1.488911882E1,-2.012363911E0,-4.205984116E0,4.498506546E0
1.489911882E1,-2.021935225E0,-3.201596737E0,4.624129772E0
1.490911882E1,-1.712064624E0,-2.562713146E0,4.299304008E0
1.491911882E1,-1.081555843E0,-1.829312921E0,4.205984116E0
1.492911882E1,-4.546363056E-1,-1.659422517E0,4.616353035E0
1.493911882E1,-3.290131316E-2,-2.120639086E0,5.007579803E0
1.494911882E1,-1.998006850E-1,-1.941177368E0,5.285745144E0
1.495911882E1,-3.996013701E-1,-1.743171334E0,5.774479389E0
1.496911882E1,-5.545366406E-1,-2.615355253E0,4.413561344E0
1.497911882E1,7.998009920E-1,-3.895515203E0,1.954337835E0
1.498911882E1,1.954337835E0,-3.341576815E0,7.459624410E-1
1.499911882E1,2.030309916E0,-2.091326952E0,5.814558864E-1
1.500911882E1,1.004387259E0,-1.917847395E0,1.823929071E0
1.501911882E1,-1.440479279E0,-1.431506157E0,4.043870449E0
1.502911882E1,-3.026920557E0,-1.884347796E-1,7.852645874E0
1.503911882E1,1.064806104E0,1.082752228E0,1.012223816E1
1.504911882E1,3.735794306E0,3.303291559E0,1.275673580E1
1.505911882E1,5.072185993E0,3.507279873E0,1.396032524E1
1.506911882E1,6.507281303E0,4.012763500E0,1.451007652E1
1.507911882E1,7.937591076E0,4.718048096E0,1.516630840E1
1.508911882E1,9.945767403E0,5.185246468E0,1.793540192E1
1.509911882E1,1.315872955E1,5.644070625E0,2.373022079E1
1.510911882E1,1.880040741E1,6.759724140E0,3.498306656E1
1.511911882E1,2.259063911E1,8.766105652E0,4.591886520E1
1.512911882E1,2.255594254E1,1.124088287E1,4.584349060E1
1.513911882E1,1.522732544E1,6.602396011E0,3.143451118E1
1.514911882E1,7.664210796E0,-2.314457655E0,1.845823479E1
1.515911882E1,-1.390229940E0,-1.425703526E1,7.759923935E0
1.516911882E1,-7.544569969E0,-1.744367790E1,3.756133318E0
1.517911882E1,-9.622138023E0,-1.098006535E1,-4.466203690E0
1.518911882E1,-7.561319470E-1,-5.880361795E-1,-9.700503349E0
1.519911882E1,8.769096375E0,1.430907917E1,-8.213961601E0
1.520911882E1,1.234337521E1,2.048375893E1,-4.923830986E0
1.521911882E1,1.286142159E1,1.888953972E1,-1.656431437E0
1.522911882E1,7.978867054E0,1.207537937E1,-1.015154958E0
1.523911882E1,2.469393015E0,7.783253670E0,1.410150242E1
1.524911882E1,3.577269793E0,7.194619656E0,1.042492962E1
1.525911882E1,4.866403103E0,7.780262947E0,6.554539204E0
1.526911882E1,8.799007416E0,5.800800323E0,4.478765965E0
1.527911882E1,1.150050354E1,2.502892494E0,3.396013498E0
1.528911882E1,9.903892517E0,-3.577269912E-1,2.993421078E0
1.529911882E1,5.892325878E0,-1.742573142E0,2.729612350E0
1.530911882E1,4.729413986E0,2.751746029E-2,2.669193745E0
1.531911882E1,4.861617565E0,4.063013077E0,2.561516523E0
1.532911882E1,4.938786030E0,5.479563713E0,3.298506021E0
1.533911882E1,4.574478626E0,6.968497753E0,3.200998545E0
1.534911882E1,5.135595798E0,9.740582466E0,2.301895380E0
1.535911882E1,6.174080849E0,1.001994514E1,2.982653379E0
1.536911882E1,5.413163185E0,9.177671432E0,2.078764677E0
1.537911882E1,5.191826820E0,8.712865829E0,1.409372568E0
1.538911882E1,4.335196495E0,8.838488579E0,1.048056364E0
1.539911882E1,3.026322365E0,8.896514893E0,1.564906001E0
1.540911882E1,2.124228239E0,8.405985832E0,2.597409010E0
1.541911882E1,1.451845169E0,7.973483086E0,3.487539053E0
1.542911882E1,3.254238665E-1,6.780063152E0,4.395017147E0
1.543911882E1,2.218744755E0,7.051050186E0,4.198207378E0
1.544911882E1,3.238087177E0,7.419544697E0,5.124229908E0
1.545911882E1,3.789632797E0,7.461419106E0,6.069394588E0
1.546911882E1,4.278964996E0,7.070790768E0,6.677171707E0
1.547911882E1,4.762315273E0,6.799803734E0,7.132406235E0
1.548911882E1,5.207978249E0,6.239883423E0,7.211967468E0
1.549911882E1,5.240281582E0,5.683551788E0,6.628716946E0
1.550911882E1,5.249852657E0,5.260022163E0,6.267400742E0
1.551911882E1,4.846662045E0,5.005784988E0,5.517251015E0
1.552911882E1,4.456632137E0,4.113262177E0,3.585046530E0
1.553911882E1,4.484747887E0,3.813561201E0,3.348157167E0
1.554911882E1,5.102694511E0,4.786243439E0,4.012763500E0
1.555911882E1,4.728815556E0,5.681159019E0,3.964907169E0
1.556911882E1,4.240081787E0,6.393023968E0,3.354139090E0
1.557911882E1,4.627718925E0,7.060023308E0,3.848257065E0
1.558911882E1,5.364708424E0,6.862017155E0,4.247260094E0
1.559911882E1,5.373681545E0,7.284350395E0,4.039682865E0
1.560911882E1,5.379065514E0,7.695317745E0,4.180859566E0
1.561911882E1,5.355136871E0,7.909475327E0,4.316651821E0
1.562911882E1,4.700101852E0,7.966903210E0,4.275974274E0
1.563911882E1,3.858426571E0,7.936394691E0,4.415954113E0
1.564911882E1,3.007778168E0,7.575676441E0,4.616353035E0
1.565911882E1,1.893919110E0,6.962515831E0,4.575077057E0
1.566911882E1,1.344168067E0,6.407381058E0,4.444668293E0
1.567911882E1,1.182054400E0,5.980860233E0,4.503292084E0
1.568911882E1,1.406381488E0,6.210571289E0,4.558327198E0
1.569911882E1,1.975873351E0,6.745965004E0,4.760520458E0
1.570911882E1,1.933400750E0,6.920042992E0,5.182853699E0
1.571911882E1,1.532602906E0,6.777669907E0,5.702096462E0
1.572911882E1,1.730010748E0,5.907280922E0,6.377470493E0
1.573911882E1,1.812563181E0,5.721239090E0,7.027719975E0
1.574911882E1,2.211566210E0,5.456233978E0,8.162516594E0
1.575911882E1,2.348555326E0,4.479363918E0,9.741779327E0
1.576911882E1,2.991028309E0,3.723232031E0,1.065404320E1
1.577911882E1,3.577867985E0,3.208775282E0,9.546764374E0
1.578911882E1,4.133002758E0,3.033500910E0,7.101299286E0
1.579911882E1,3.457030535E0,2.629712105E0,5.745765209E0
1.580911882E1,2.093121529E0,2.592623234E0,5.342574596E0
1.581911882E1,8.997012973E-1,2.800798893E0,6.402595043E0
1.582911882E1,2.464607358E-1,2.897708178E0,7.607381344E0
1.583911882E1,2.919243574E-1,3.413959742E0,9.166903496E0
1.584911882E1,1.351346612E0,5.058426857E0,1.118764210E1
1.585911882E1,2.519642353E0,5.458626747E0,1.234397411E1
1.586911882E1,3.414557934E0,4.090530396E0,1.238704491E1
1.587911882E1,4.105485439E0,7.956135273E-1,1.285663605E1
1.588911882E1,3.415156126E0,1.061216831E0,1.461835194E1
1.589911882E1,4.634299278E0,-3.804588020E-1,1.422592926E1
1.590911882E1,4.533202648E0,-4.353142738E0,1.277288723E1
1.591911882E1,3.632304668E0,-9.084351540E0,1.308455276E1
1.592911882E1,2.549552441E0,-1.060558796E1,1.433958817E1
1.593911882E1,3.412165165E0,-1.090170002E1,1.808076668E1
1.594911882E1,5.012365341E0,-1.038544846E1,2.296451759E1
1.595911882E1,3.266202927E0,-9.662816048E0,2.273779678E1
1.596911882E1,-2.769093990E0,-6.134000778E0,2.017508507E1
1.597911882E1,-4.420141697E0,-2.723032236E0,1.484148216E1
1.598911882E1,-4.599005222E0,-5.312066078E-1,1.110090256E1
1.599911882E1,-3.876372576E0,2.398206472E0,9.580264091E0
1.600911882E1,-2.903690338E0,2.188236237E0,8.078767776E0
1.601911882E1,-2.398804665E0,3.897907972E0,4.246662140E0
1.602911882E1,-9.571290612E-1,3.846462488E0,5.779264927E0
1.603911882E1,-4.995017350E-1,3.375076294E0,4.686343193E0
1.604911882E1,-4.630111754E-1,2.630310297E0,3.652045488E0
1.605911882E1,-5.401797295E-1,1.744367719E0,2.913859844E0
1.606911882E1,-1.860419661E-1,5.060819983E-1,2.749353170E0
1.607911882E1,4.558327198E-1,-3.966103494E-1,3.315854073E0
1.608911882E1,9.882357717E-1,-9.415757060E-1,4.042075634E0
1.609911882E1,1.822134495E0,-1.283151150E0,5.216353416E0
1.610911882E1,2.374876499E0,-1.286740422E0,6.640681267E0
1.611911882E1,2.778067112E0,-1.259222865E0,7.604988575E0
1.612911882E1,3.295515060E0,-1.042074203E0,8.197212219E0
1.613911882E1,3.936193228E0,-7.328019142E-1,8.503493309E0
1.614911882E1,4.639683247E0,-2.937189937E-1,8.781659126E0
1.615911882E1,4.806582451E0,6.041877344E-2,8.799007416E0
1.616911882E1,4.362115860E0,1.263410330E0,9.264410973E0
1.617911882E1,4.821537495E0,1.827518344E0,9.447462082E0
1.618911882E1,4.912465096E0,2.423929453E0,9.710074425E0
1.619911882E1,4.956133842E0,2.307877541E0,9.905687332E0
1.620911882E1,4.932205677E0,2.273779631E0,9.958329201E0
1.621911882E1,5.334199905E0,2.096112728E0,1.011625576E1
1.622911882E1,6.003592014E0,1.715055585E0,9.992427826E0
1.623911882E1,6.500700951E0,1.447657704E0,9.920642853E0
1.624911882E1,6.380461693E0,1.583450437E0,9.595218658E0
1.625911882E1,5.936593056E0,8.925228715E-1,9.866804123E0
1.626911882E1,6.477969170E0,3.768695593E-1,1.045005512E1
1.627911882E1,5.647659779E0,-1.932204217E-1,1.119482040E1
1.628911882E1,4.864608288E0,-3.272185028E-1,1.183729362E1
1.629911882E1,4.015156269E0,-7.776673418E-3,1.270768261E1
1.630911882E1,3.236292601E0,3.134597540E-1,1.324307728E1
1.631911882E1,2.389233351E0,8.356932998E-1,1.303250885E1
1.632911882E1,1.989632010E0,1.427916884E0,1.165543938E1
1.633911882E1,1.989632010E0,1.427916884E0,1.165543938E1
1.634911882E1,1.227517962E0,2.307279348E0,8.009375572E0
1.635911882E1,8.243274093E-1,2.428116798E0,7.036693096E0
1.636911882E1,6.520441771E-1,2.486740828E0,6.811169624E0
1.637911882E1,8.626125455E-1,2.279163599E0,7.103094101E0
1.638911882E1,1.098305583E0,1.997408748E0,7.834699631E0
1.639911882E1,1.103689432E0,1.851446509E0,8.169096947E0
1.640911882E1,1.329213023E0,1.496112347E0,8.359326363E0
1.641911882E1,1.305284739E0,7.561319470E-1,8.057231903E0
1.642911882E1,1.635494232E0,2.955136001E-1,8.290532112E0
1.643911882E1,1.750349760E0,2.045863420E-1,8.333602905E0
1.644911882E1,2.061416626E0,2.865405083E-1,8.263014793E0
1.645911882E1,2.257030010E0,4.390829504E-1,8.370093346E0
1.646911882E1,2.377269268E0,1.158724308E0,8.868398666E0
1.647911882E1,2.273181438E0,8.739784956E-1,9.282955170E0
1.648911882E1,2.650649309E0,7.543373108E-1,9.340981483E0
1.649911882E1,2.565105915E0,8.871390224E-1,9.504291534E0
1.650911882E1,2.651845694E0,6.454638839E-1,9.876974106E0
1.651911882E1,2.843869686E0,-2.644068897E-1,9.991230965E0
1.652911882E1,2.848655462E0,5.090730190E-1,1.028375340E1
1.653911882E1,2.868396044E0,5.551348329E-1,1.053320503E1
1.654911882E1,2.958725214E0,4.839483798E-1,1.051346493E1
1.655911882E1,3.145365477E0,4.127618968E-1,1.038963604E1
1.656911882E1,3.355335474E0,3.517449200E-1,1.029392338E1
1.657911882E1,3.570689678E0,4.618147612E-1,1.030050373E1
1.658911882E1,3.852444410E0,6.197410822E-1,1.028315544E1
1.659911882E1,3.828516245E0,7.680960894E-1,1.029392338E1
1.660911882E1,3.694518089E0,8.590233326E-1,1.027956581E1
1.661911882E1,3.522234917E0,9.367900491E-1,1.007797050E1
1.662911882E1,3.340380430E0,1.008574724E0,1.004447079E1
1.663911882E1,3.162713289E0,1.116251707E0,9.690333366E0
1.664911882E1,2.989831924E0,1.329811215E0,9.154341698E0
1.665911882E1,3.022135019E0,1.485942841E0,8.686544418E0
1.666911882E1,3.203989506E0,1.606780410E0,8.505886078E0
1.667911882E1,4.313661098E0,1.133001566E0,8.674580574E0
1.668911882E1,3.217748165E0,1.597807288E0,8.424530029E0
1.669911882E1,2.944368362E0,1.797608018E0,7.864609718E0
1.670911882E1,3.279363394E0,1.740180254E0,7.874779224E0
1.671911882E1,3.514458179E0,1.483550072E0,8.405985832E0
1.672911882E1,3.190230846E0,1.150947690E0,8.766105652E0
1.673911882E1,2.974876642E0,9.403793216E-1,8.697312355E0
1.674911882E1,2.864208698E0,8.943174481E-1,8.408976555E0
1.675911882E1,3.184248686E0,9.583254457E-1,8.195417404E0
1.676911882E1,3.543172121E0,1.024726272E0,8.321639061E0
1.677911882E1,3.352344513E0,9.463613629E-1,8.535796165E0
1.678911882E1,3.391227961E0,9.780662656E-1,8.890532494E0
1.679911882E1,3.458226919E0,1.014556766E0,9.130413055E0
1.680911882E1,3.425325632E0,9.469595551E-1,9.235098839E0
1.681911882E1,3.009572744E0,9.643075466E-1,9.410971642E0
1.682911882E1,2.899502754E0,6.538388133E-1,9.308079720E0
1.683911882E1,2.679363251E0,8.596215248E-1,9.293723106E0
1.684911882E1,2.569891453E0,7.633104324E-1,9.441479683E0
1.685911882E1,3.192025423E0,6.807580590E-1,9.672985077E0
1.686911882E1,3.923630953E0,6.334998012E-1,9.646664619E0
1.687911882E1,3.942773581E0,8.865407705E-1,9.744172096E0
1.688911882E1,3.182454109E0,8.177471161E-1,9.918250084E0
1.689911882E1,3.168695450E0,8.548358679E-1,1.010488987E1
1.690911882E1,3.015554667E0,8.219345808E-1,1.004686451E1
1.691911882E1,2.776272535E0,8.416753411E-1,9.940383911E0
1.692911882E1,2.617748022E0,9.146564603E-1,9.729815483E0
1.693911882E1,2.555534601E0,9.493523836E-1,9.528818130E0
1.694911882E1,2.359323025E0,1.059422255E0,9.433105469E0
1.695911882E1,2.449652195E0,1.170688510E0,9.299705505E0
1.696911882E1,2.578864574E0,1.232901812E0,9.272188187E0
1.697911882E1,2.745764017E0,1.271785259E0,9.210572243E0
1.698911882E1,2.798406124E0,1.253240824E0,9.191430092E0
1.699911882E1,2.769692183E0,1.205384374E0,9.114261627E0
1.700911882E1,2.788834810E0,1.220339537E0,9.014361382E0
1.701911882E1,2.831905603E0,1.249651670E0,8.980861664E0
1.702911882E1,2.793620348E0,1.201795220E0,8.980263710E0
1.703911882E1,2.836691141E0,1.249651670E0,8.947361946E0
1.704911882E1,2.894119024E0,1.229910851E0,9.047860146E0
1.705911882E1,2.860619545E0,1.211366415E0,8.971290588E0
1.706911882E1,2.903690338E0,1.216152072E0,8.995218277E0
1.707911882E1,2.855833769E0,1.143171072E0,9.109476089E0
1.708911882E1,2.779263496E0,1.037886858E0,9.132805824E0
1.709911882E1,2.798406124E0,1.047458172E0,9.137591362E0
1.710911882E1,2.937189817E0,1.047458172E0,9.186046600E0
1.711911882E1,3.067000389E0,1.089332461E0,9.339784622E0
1.712911882E1,2.976073265E0,1.022333503E0,9.401400566E0
1.713911882E1,3.004786968E0,9.493523836E-1,9.511469841E0
1.714911882E1,3.004786968E0,9.110672474E-1,9.558728218E0
1.715911882E1,3.005385160E0,8.721838593E-1,9.620942116E0
1.716911882E1,3.014358282E0,8.727820516E-1,9.577870369E0
1.717911882E1,3.000001431E0,8.775677085E-1,9.534799576E0
1.718911882E1,2.919243574E0,8.871390224E-1,9.572486877E0
1.719911882E1,2.866003275E0,9.062815905E-1,9.515059471E0
1.720911882E1,2.870789051E0,9.068797827E-1,9.424132347E0
1.721911882E1,2.827718258E0,8.925228715E-1,9.385847092E0
1.722911882E1,2.803789854E0,8.835497499E-1,9.342177391E0
1.723911882E1,2.875574589E0,9.122636318E-1,9.381061554E0
1.724911882E1,2.909074068E0,8.739784956E-1,9.347561836E0
1.725911882E1,2.909074068E0,8.644071817E-1,9.318847656E0
1.726911882E1,2.808575630E0,8.273184299E-1,9.184251785E0
1.727911882E1,2.788834810E0,8.518448472E-1,9.088538170E0
1.728911882E1,2.774477959E0,9.284151793E-1,9.065208435E0
1.729911882E1,2.817548752E0,1.067198873E0,9.080163956E0
1.730911882E1,2.827120066E0,1.114457130E0,9.171689034E0
1.731911882E1,2.799004316E0,1.113858938E0,9.238688469E0
1.732911882E1,2.779861689E0,1.089930773E0,9.266803741E0
1.733911882E1,2.808575630E0,1.027717352E0,9.271589279E0
1.734911882E1,2.904288530E0,9.744769931E-1,9.319445610E0
1.735911882E1,2.827718258E0,9.409775138E-1,9.352347374E0
1.736911882E1,2.779861689E0,9.409775138E-1,9.361918449E0
1.737911882E1,2.741576433E0,9.696913958E-1,9.328418732E0
1.738911882E1,2.732005358E0,1.026520967E0,9.381659508E0
1.739911882E1,2.751147747E0,1.050449133E0,9.376873970E0
1.740911882E1,2.755933523E0,1.050449133E0,9.386445045E0
1.741911882E1,2.760719061E0,1.064806104E0,9.424730301E0
1.742911882E1,2.755933523E0,1.012163997E0,9.410373688E0
1.743911882E1,2.698505640E0,9.355936646E-1,9.452247620E0
1.744911882E1,2.693720102E0,9.451649189E-1,9.443274498E0
1.745911882E1,2.722434044E0,9.643075466E-1,9.433703423E0
1.746911882E1,2.698505640E0,9.595218897E-1,9.385847092E0
1.747911882E1,2.732005358E0,9.601200819E-1,9.309276581E0
1.748911882E1,2.760719061E0,9.936196208E-1,9.337990761E0
1.749911882E1,2.727219582E0,9.936196208E-1,9.318847656E0
1.750911882E1,2.765504837E0,9.840483069E-1,9.333204269E0
1.751911882E1,2.779861689E0,9.266205430E-1,9.352347374E0
1.752911882E1,2.736790895E0,8.500502706E-1,9.323035240E0
1.753911882E1,2.722434044E0,8.458628058E-1,9.260223389E0
1.754911882E1,2.813361168E0,9.128618240E-1,9.270991325E0
1.755911882E1,2.832503796E0,9.553344250E-1,9.333204269E0
1.756911882E1,2.832503796E0,9.840483069E-1,9.309874535E0
1.757911882E1,2.861217737E0,1.037288666E0,9.285946846E0
1.758911882E1,2.775076151E0,1.022333503E0,9.309874535E0
1.759911882E1,2.751147747E0,1.003789067E0,9.270991325E0
1.760911882E1,2.808575630E0,9.649057388E-1,9.376275063E0
1.761911882E1,2.818146944E0,9.499505758E-1,9.448060036E0
1.762911882E1,2.789433002E0,9.170492887E-1,9.357132912E0
1.763911882E1,2.755933523E0,8.500502706E-1,9.351749420E0
1.764911882E1,2.751147747E0,8.931210637E-1,9.351749420E0
1.765911882E1,2.794218540E0,9.068797827E-1,9.414560318E0
1.766911882E1,2.760719061E0,9.690931439E-1,9.414560318E0
1.767911882E1,2.736790895E0,9.601200819E-1,9.361918449E0
1.768911882E1,2.837289333E0,1.041476011E0,9.324232101E0
1.769911882E1,2.789433002E0,1.017547846E0,9.329017639E0
1.770911882E1,2.765504837E0,9.984052777E-1,9.342776299E0
1.771911882E1,2.770290375E0,9.744769931E-1,9.352347374E0
1.772911882E1,2.775076151E0,9.260223508E-1,9.400203705E0
1.773911882E1,2.765504837E0,9.212366939E-1,9.433703423E0
1.774911882E1,2.727219582E0,8.973084688E-1,9.399605751E0
1.775911882E1,2.722434044E0,9.403793216E-1,9.381061554E0
1.776911882E1,2.732005358E0,9.792626500E-1,9.352347374E0
1.777911882E1,2.727219582E0,9.744769931E-1,9.342776299E0
1.778911882E1,2.717648268E0,9.409775138E-1,9.352347374E0
1.779911882E1,2.693720102E0,9.266205430E-1,9.346963882E0
1.780911882E1,2.693720102E0,9.170492887E-1,9.323035240E0
1.781911882E1,2.693720102E0,9.266205430E-1,9.323035240E0
1.782911882E1,2.746362209E0,9.505487680E-1,9.337990761E0
1.783911882E1,2.746362209E0,9.505487680E-1,9.337990761E0
1.784911882E1,2.779861689E0,9.649057388E-1,9.352347374E0
1.785911882E1,2.775076151E0,9.936196208E-1,9.314062119E0
1.786911882E1,2.799004316E0,1.022333503E0,9.319445610E0
1.787911882E1,2.751147747E0,9.846464992E-1,9.280562401E0
1.788911882E1,2.736790895E0,9.649057388E-1,9.309276581E0
1.789911882E1,2.732005358E0,9.505487680E-1,9.323633194E0
1.790911882E1,2.779861689E0,9.744769931E-1,9.309276581E0
1.791911882E1,2.827718258E0,9.409775138E-1,9.328418732E0
1.792911882E1,2.803789854E0,9.026923180E-1,9.299705505E0
1.793911882E1,2.832503796E0,9.463613629E-1,9.280562401E0
1.794911882E1,2.755933523E0,9.074779749E-1,9.289535522E0
1.795911882E1,2.727219582E0,8.979067206E-1,9.299106598E0
1.796911882E1,2.760719061E0,9.074779749E-1,9.337391853E0
1.797911882E1,2.627319336E0,8.494520187E-1,9.442078590E0
1.798911882E1,2.669791937E0,8.494520187E-1,9.365508080E0
1.799911882E1,2.703291416E0,8.063812256E-1,9.413364410E0
1.800911882E1,2.722434044E0,8.542376757E-1,9.380462646E0
1.801911882E1,2.794218540E0,9.122636318E-1,9.371489525E0
1.802911882E1,2.732005358E0,8.877372146E-1,9.385248184E0
1.803911882E1,2.708076954E0,8.979067206E-1,9.361320496E0
1.804911882E1,2.799004316E0,9.421738982E-1,9.180064201E0
1.805911882E1,2.655434847E0,9.463613629E-1,9.208179474E0
1.806911882E1,2.670390129E0,9.535398483E-1,9.629914284E0
1.807911882E1,2.833101988E0,9.332008362E-1,9.774082184E0
1.808911882E1,2.828316450E0,9.475577474E-1,9.798010826E0
1.809911882E1,2.732603550E0,9.014959335E-1,9.485747337E0
1.810911882E1,2.712862730E0,8.638089895E-1,9.404391289E0
1.811911882E1,2.732005358E0,8.733802438E-1,9.394820213E0
1.812911882E1,2.693720102E0,8.063812256E-1,9.365508080E0
1.813911882E1,2.693720102E0,8.602197170E-1,9.260223389E0
1.814911882E1,2.540579557E0,8.883354068E-1,9.293723106E0
1.819253399E1,-2.953341246E0,-9.380462646E0,7.220342159E-1
1.820253399E1,-3.054438114E0,-9.254839897E0,5.688936114E-1
1.821253399E1,-3.001796007E0,-9.192625999E0,5.599204898E-1
1.822253399E1,-3.092723370E0,-9.230313301E0,4.875376225E-1
1.823253399E1,-3.049652576E0,-9.253643036E0,3.726821244E-1
1.824253399E1,-3.097508907E0,-9.273384094E0,4.492524564E-1
1.825253399E1,-3.260220766E0,-9.335597992E0,4.432703853E-1
1.826253399E1,-3.126222849E0,-9.206384659E0,4.348955154E-1
1.827253399E1,-3.188436270E0,-9.215956688E0,4.157529473E-1
1.828253399E1,-3.116651535E0,-9.182456970E0,4.737788737E-1
1.829253399E1,-3.092723370E0,-9.244669914E0,4.875376225E-1
1.830253399E1,-3.064009428E0,-9.254241943E0,4.492524564E-1
1.831253399E1,-3.059223652E0,-9.235098839E0,4.157529473E-1
1.832253399E1,-3.068794966E0,-9.196813583E0,4.546363056E-1
1.833253399E1,-3.035295486E0,-9.196813583E0,4.642075896E-1
1.834253399E1,-3.087937593E0,-9.268598557E0,4.636093974E-1
1.835253399E1,-3.087937593E0,-9.263813019E0,4.731806815E-1
1.836253399E1,-3.111865759E0,-9.197412491E0,5.216353536E-1
1.837253399E1,-3.159722328E0,-9.197412491E0,5.353940725E-1
1.838253399E1,-3.139981508E0,-9.312267303E0,5.778666735E-1
1.839253399E1,-3.139981508E0,-9.365508080E0,6.065805554E-1
1.840253399E1,-3.092125177E0,-9.298508644E0,5.928218365E-1
1.841253399E1,-3.111267567E0,-9.255437851E0,6.263213158E-1
1.842253399E1,-3.087339401E0,-9.241679192E0,7.226324677E-1
1.843253399E1,-3.154338360E0,-9.289535522E0,7.172485590E-1
1.844253399E1,-3.058625460E0,-9.327222824E0,6.885347366E-1
1.845253399E1,-3.072982550E0,-9.346364975E0,6.496513486E-1
1.846253399E1,-3.092125177E0,-9.273982048E0,5.593222976E-1
1.847253399E1,-3.053839922E0,-9.265008926E0,6.167500615E-1
1.848253399E1,-3.068196774E0,-9.365508080E0,6.352944374E-1
1.849253399E1,-3.058625460E0,-9.374481201E0,5.730810165E-1
1.850253399E1,-3.058625460E0,-9.259625435E0,5.784648657E-1
1.851253399E1,-3.125624657E0,-9.178867340E0,6.173482537E-1
1.852253399E1,-3.197409153E0,-9.126823425E0,6.843472719E-1
1.853253399E1,-3.240479946E0,-9.207581520E0,6.454638839E-1
1.854253399E1,-3.254837036E0,-9.241081238E0,6.305087805E-1
1.855253399E1,-3.254837036E0,-9.212367058E0,6.023930907E-1
1.856253399E1,-3.197409153E0,-9.174081802E0,6.263213158E-1
1.857253399E1,-3.178266764E0,-9.217152596E0,6.502495408E-1
1.858253399E1,-3.197409153E0,-9.275178909E0,7.166503668E-1
1.859253399E1,-3.168695450E0,-9.270991325E0,8.177471161E-1
1.860253399E1,-3.211168051E0,-9.223732948E0,8.703892231E-1
1.861253399E1,-3.192025423E0,-9.185447693E0,9.092726111E-1
1.862253399E1,-3.163909674E0,-9.262018204E0,8.703892231E-1
1.863253399E1,-3.163909674E0,-9.314062119E0,8.219345808E-1
1.864253399E1,-3.183052301E0,-9.299106598E0,7.597211599E-1
1.865253399E1,-3.154338360E0,-9.251250267E0,7.411768436E-1
1.866253399E1,-3.087339401E0,-9.222537041E0,7.513462901E-1
1.867253399E1,-3.135195971E0,-9.232706070E0,7.986045480E-1
1.868253399E1,-3.211766243E0,-9.193822861E0,7.651050687E-1
1.869253399E1,-3.264408350E0,-9.169894218E0,7.507480979E-1
1.870253399E1,-3.293122053E0,-9.222537041E0,6.879364848E-1
1.871253399E1,-3.254837036E0,-9.202795982E0,6.215356588E-1
1.872253399E1,-3.230908871E0,-9.154939651E0,6.167500615E-1
1.873253399E1,-3.245265722E0,-9.154939651E0,6.406782866E-1
1.874253399E1,-3.221337557E0,-9.198608398E0,6.981059909E-1
1.875253399E1,-3.187838078E0,-9.202795982E0,6.693921089E-1
1.876253399E1,-3.183052301E0,-9.188439369E0,6.502495408E-1
1.877253399E1,-3.216551781E0,-9.221938133E0,6.406782866E-1
1.878253399E1,-3.197409153E0,-9.231510162E0,6.406782866E-1
1.879253399E1,-3.192623615E0,-9.227322578E0,6.981059909E-1
1.880253399E1,-3.168695450E0,-9.212965012E0,7.555337548E-1
1.881253399E1,-3.197409153E0,-9.217751503E0,7.603194118E-1
1.882253399E1,-3.183052301E0,-9.194420815E0,7.842476368E-1
1.883253399E1,-3.130410194E0,-9.170493126E0,8.039883971E-1
1.884253399E1,-3.125624657E0,-9.203991890E0,8.422735929E-1
1.885253399E1,-3.187838078E0,-9.227920532E0,7.986045480E-1
1.886253399E1,-3.211766243E0,-9.194420815E0,8.321040869E-1
1.887253399E1,-3.235694408E0,-9.180064201E0,8.464609981E-1
1.888253399E1,-3.216551781E0,-9.213563919E0,8.464609981E-1
1.889253399E1,-3.230908871E0,-9.227920532E0,7.651050687E-1
1.890253399E1,-3.278765202E0,-9.227920532E0,7.597211599E-1
1.891253399E1,-3.302693367E0,-9.223134995E0,7.980063558E-1
1.892253399E1,-3.331407309E0,-9.213563919E0,7.549355626E-1
1.893253399E1,-3.317050457E0,-9.184251785E0,7.363911867E-1
1.894253399E1,-3.293122053E0,-9.184849739E0,7.746763229E-1
1.895253399E1,-3.269193888E0,-9.151350021E0,8.081758618E-1
1.896253399E1,-3.297907829E0,-9.189635277E0,8.273184299E-1
1.897253399E1,-3.350549936E0,-9.232706070E0,7.692924738E-1
1.898253399E1,-3.345764160E0,-9.232706070E0,7.549355626E-1
1.899253399E1,-3.336193085E0,-9.247062683E0,7.788637877E-1
1.900253399E1,-3.336193085E0,-9.232706070E0,7.788637877E-1
1.901253399E1,-3.302693367E0,-9.184849739E0,7.938188910E-1
1.902253399E1,-3.269193888E0,-9.147162437E0,8.512466550E-1
1.903253399E1,-3.278765202E0,-9.122636795E0,8.470591903E-1
1.904253399E1,-3.254837036E0,-9.141778946E0,8.327022791E-1
1.905253399E1,-3.268595695E0,-9.195018768E0,8.799605370E-1
1.906253399E1,-3.273979664E0,-9.232706070E0,8.225327730E-1
1.907253399E1,-3.235694408E0,-9.218947411E0,8.608179688E-1
1.908253399E1,-3.225524902E0,-9.204590797E0,8.847461939E-1
1.909253399E1,-3.269193888E0,-9.136993408E0,8.518448472E-1
1.910253399E1,-3.273381472E0,-9.089735031E0,8.997012973E-1
1.911253399E1,-3.340380430E0,-9.075378418E0,9.284151793E-1
1.912253399E1,-3.402593851E0,-9.113663673E0,9.134600163E-1
1.913253399E1,-3.440878868E0,-9.171091080E0,9.032905698E-1
1.914253399E1,-3.445664644E0,-9.218947411E0,8.697910309E-1
1.915253399E1,-3.397808075E0,-9.199206352E0,8.123632669E-1
1.916253399E1,-3.345165968E0,-9.185447693E0,8.464609981E-1
1.917253399E1,-3.340380430E0,-9.190233231E0,9.230313301E-1
1.918253399E1,-3.306880951E0,-9.224330902E0,9.613165259E-1
1.919253399E1,-3.373879910E0,-9.229117393E0,9.942178130E-1
1.920253399E1,-3.436093330E0,-9.244071960E0,1.037288666E0
1.921253399E1,-3.397209883E0,-9.249456406E0,1.142572761E0
1.922253399E1,-3.383451223E0,-9.253643036E0,1.094716311E0
1.923253399E1,-3.402593851E0,-9.219545364E0,1.013360381E0
1.924253399E1,-3.402593851E0,-9.181260109E0,1.008574724E0
1.925253399E1,-3.402593851E0,-9.205188751E0,9.990034699E-1
1.926253399E1,-3.397808075E0,-9.181260109E0,9.655039310E-1
1.927253399E1,-3.407379389E0,-9.123832703E0,9.996016622E-1
1.928253399E1,-3.431307554E0,-9.118449211E0,8.799605370E-1
1.929253399E1,-3.354737282E0,-9.132805824E0,8.656035662E-1
1.930253399E1,-3.312264681E0,-9.160921097E0,7.746763229E-1
1.931253399E1,-3.178266764E0,-9.227920532E0,7.842476368E-1
1.932253399E1,-3.068196774E0,-9.242277145E0,8.709874153E-1
1.933253399E1,-3.053241730E0,-9.305088997E0,9.182456732E-1
1.934253399E1,-3.038884640E0,-9.358329773E0,1.004387259E0
1.935253399E1,-3.115455151E0,-9.277571678E0,1.066600680E0
1.936253399E1,-3.144168854E0,-9.258428574E0,1.090528965E0
1.937253399E1,-3.196810961E0,-9.220144272E0,1.066600680E0
1.938253399E1,-3.287738323E0,-9.229117393E0,9.756734371E-1
1.939253399E1,-3.182454109E0,-9.248857498E0,1.080957651E0
1.940253399E1,-3.269193888E0,-9.175278664E0,8.273184299E-1
1.941253399E1,-3.202194929E0,-9.247062683E0,8.081758618E-1
1.942253399E1,-3.183052301E0,-9.212965012E0,7.028916478E-1
1.943253399E1,-3.268595695E0,-9.099306107E0,8.901300430E-1
1.944253399E1,-3.259024382E0,-9.142376900E0,9.044869542E-1
1.945253399E1,-3.355335474E0,-9.069993973E0,8.087740541E-1
1.946253399E1,-3.446262836E0,-9.089137077E0,7.746763229E-1
1.947253399E1,-3.417548895E0,-9.146564484E0,7.549355626E-1
1.948253399E1,-3.330809116E0,-9.218947411E0,8.602197170E-1
1.949253399E1,-3.168097258E0,-9.378069878E0,1.085145116E0
1.950253399E1,-3.062813044E0,-9.325428009E0,1.076171994E0
1.951253399E1,-3.019742250E0,-9.383454323E0,1.234098315E0
1.952253399E1,-3.071786165E0,-9.384650230E0,1.411167145E0
1.953253399E1,-3.067000389E0,-9.293723106E0,1.373480201E0
1.954253399E1,-3.057429075E0,-9.212965012E0,1.541576028E0
1.955253399E1,-3.138785124E0,-9.260822296E0,1.454836130E0
1.956253399E1,-3.200998545E0,-9.183054924E0,1.272981644E0
1.957253399E1,-3.234498024E0,-9.079565048E0,1.560718536E0
1.958253399E1,-3.195614576E0,-8.938388824E0,1.954337835E0
1.959253399E1,-3.138186932E0,-8.928817749E0,1.974078655E0
1.960253399E1,-3.114258766E0,-8.894720078E0,1.878365755E0
1.961253399E1,-3.138785124E0,-8.801998138E0,1.591825247E0
1.962253399E1,-2.846860647E0,-8.635098457E0,1.698904037E0
1.963253399E1,-2.722434044E0,-8.478368759E0,1.892124534E0
1.964253399E1,-2.851646423E0,-8.301300049E0,1.878365755E0
1.965253399E1,-2.827120066E0,-8.400003433E0,2.342573404E0
1.966253399E1,-2.869592667E0,-8.554341316E0,2.551945448E0
1.967253399E1,-3.065205812E0,-8.502297401E0,2.589632273E0
1.968253399E1,-3.208775282E0,-8.258827209E0,2.700898647E0
1.969253399E1,-3.256033421E0,-8.231907845E0,2.949752092E0
1.970253399E1,-3.193221807E0,-8.243872643E0,3.361915827E0
1.971253399E1,-3.292523861E0,-8.635697365E0,4.058227062E0
1.972253399E1,-3.592225075E0,-9.032905579E0,4.700700283E0
1.973253399E1,-3.496512175E0,-8.918647766E0,4.831109047E0
1.974253399E1,-3.234498024E0,-8.724829674E0,4.522434711E0
1.975253399E1,-3.206980467E0,-8.825327873E0,3.793820381E0
1.976253399E1,-3.637688637E0,-8.876773834E0,3.461816072E0
1.977253399E1,-3.656831264E0,-8.545966148E0,3.391826153E0
1.978253399E1,-3.395415306E0,-8.091927528E0,2.830709219E0
1.979253399E1,-2.790031195E0,-7.344171047E0,1.913659930E0
1.980253399E1,-2.589034081E0,-7.980063438E0,1.809572101E0
1.981253399E1,-2.249253273E0,-7.459026337E0,2.029711723E0
1.982253399E1,-2.110469580E0,-7.059424877E0,2.368296146E0
1.983253399E1,-2.114656925E0,-6.854240417E0,2.469991207E0
1.984253399E1,-2.377269268E0,-6.936792850E0,2.645265341E0
1.985253399E1,-2.769093990E0,-7.040282249E0,3.098107100E0
1.986253399E1,-3.016751051E0,-7.063014030E0,3.619144201E0
1.987253399E1,-3.226123095E0,-7.042077065E0,4.054039955E0
1.988253399E1,-3.193820000E0,-7.196413994E0,3.502494097E0
1.989253399E1,-2.729612350E0,-7.488338470E0,3.545564890E0
1.990253399E1,-2.240878344E0,-7.874779224E0,4.119842529E0
1.991253399E1,-2.172084808E0,-8.003992081E0,4.952544689E0
1.992253399E1,-2.306082726E0,-7.900502205E0,5.234897614E0
1.993253399E1,-2.497508526E0,-7.602595806E0,4.944169998E0
1.994253399E1,-2.560918331E0,-7.155138016E0,4.582853794E0
1.995253399E1,-2.402992249E0,-6.854240417E0,4.719244480E0
1.996253399E1,-1.967498422E0,-6.725626469E0,4.832305431E0
1.997253399E1,-1.804786444E0,-6.821937561E0,4.980660439E0
1.998253399E1,-2.214557409E0,-7.012764931E0,5.557330608E0
1.999253399E1,-3.052045345E0,-7.194021225E0,5.394618511E0
2.000253399E1,-3.468994617E0,-7.448258877E0,4.654039860E0
2.001253399E1,-3.427120209E0,-7.821538925E0,3.914657831E0
2.002253399E1,-2.894717216E0,-7.920841217E0,4.586442947E0
2.003253399E1,-2.161915302E0,-7.796414375E0,5.417948723E0
2.004253399E1,-1.936391711E0,-7.747361660E0,5.970092297E0
2.005253399E1,-1.974078655E0,-7.495516777E0,6.311667919E0
2.006253399E1,-2.093719721E0,-7.682755470E0,6.319444656E0
2.007253399E1,-2.477169752E0,-6.256034851E0,6.217151642E0
2.008253399E1,-2.432902336E0,-7.588238716E0,6.495915413E0
2.009253399E1,-2.417349100E0,-8.141578674E0,6.990631580E0
2.010253399E1,-2.301895380E0,-8.913264275E0,7.172485828E0
2.011253399E1,-2.464607239E0,-7.948358536E0,7.470392227E0
2.012253399E1,-1.637288928E0,-7.509275436E0,7.777870178E0
2.013253399E1,-6.514459848E-1,-7.276573658E0,8.199604988E0
2.014253399E1,2.811566554E-2,-7.106683254E0,8.620143890E0
2.015253399E1,-1.196411322E-3,-7.100102901E0,8.361719131E0
2.016253399E1,-3.726821244E-1,-8.056035995E0,8.809176445E0
2.017253399E1,-6.095715761E-1,-8.608778000E0,9.934401512E0
2.018253399E1,-6.699903607E-1,-6.437889099E0,8.703293800E0
2.019253399E1,-1.149153113E0,-8.322834969E0,7.755736351E0
2.020253399E1,-1.429711580E0,-1.042014408E1,7.947162151E0
2.021253399E1,-1.080359459E0,-1.072762203E1,8.133204460E0
2.022253399E1,-7.088736892E-1,-1.055713367E1,1.000319481E1
2.023253399E1,-6.987041831E-1,-7.444669247E0,1.127258778E1
2.024253399E1,-9.272187948E-1,-6.179464340E0,9.441479683E0
2.025253399E1,-7.908278704E-1,-5.186442852E0,8.303692818E0
2.026253399E1,-6.711867452E-1,-4.604389191E0,8.609375954E0
2.027253399E1,-2.739782035E-1,-4.957928658E0,8.589634895E0
2.028253399E1,3.170489967E-1,-5.987440586E0,7.210771084E0
2.029253399E1,-2.685943544E-1,-4.846064091E0,6.057430744E0
2.030253399E1,-1.024128079E0,-5.708078384E0,6.082555294E0
2.031253399E1,-1.832303882E0,-6.142973900E0,5.851647854E0
2.032253399E1,-2.181656122E0,-5.544768333E0,5.830112457E0
2.033253399E1,-1.431506157E0,-4.403990269E0,5.586044312E0
2.034253399E1,-8.883354068E-1,-3.556332588E0,4.856233597E0
2.035253399E1,1.160518974E-1,-2.809772015E0,5.027918816E0
2.036253399E1,1.951346874E0,-9.990034699E-1,4.993820667E0
2.037253399E1,4.019343853E0,8.273184299E-1,7.004988194E0
2.038253399E1,5.540580750E0,2.268395901E0,7.891529083E0
2.039253399E1,6.470192432E0,1.598405480E0,8.815158844E0
2.040253399E1,7.119245529E0,1.111466169E0,7.871190071E0
2.041253399E1,7.651648521E0,1.691725612E0,6.320641041E0
2.042253399E1,8.142775536E0,2.691925526E0,5.596213818E0
2.043253399E1,7.769495010E0,3.825525284E0,5.697908878E0
2.044253399E1,7.775477409E0,4.847260475E0,6.777071953E0
2.045253399E1,9.266205788E0,5.604588985E0,9.114859581E0
2.046253399E1,1.112722397E1,5.047659397E0,9.616155624E0
2.047253399E1,1.457288837E1,7.670193195E0,9.287142754E0
2.048253399E1,1.796710777E1,1.049192905E1,1.230150127E1
2.049253399E1,1.954397774E1,1.050748253E1,1.760878181E1
2.050253399E1,1.670489311E1,7.414759159E0,1.743889236E1
2.051253399E1,1.387179089E1,4.563112736E0,1.239183044E1
2.052253399E1,1.219980621E1,3.908675671E0,7.487142086E0
2.053253399E1,1.236790180E1,3.135794163E0,4.796412945E0
2.054253399E1,1.108415222E1,2.004587173E0,3.649054468E-1
2.055253399E1,1.224646664E1,2.928216696E0,-4.758127689E0
2.056253399E1,1.393998623E1,6.470790863E0,-9.254241943E0
2.057253399E1,1.396032524E1,9.466006279E0,-1.058046341E1
2.058253399E1,1.182832050E1,9.916455269E0,-7.176673412E0
2.059253399E1,7.409375191E0,5.584249973E0,-3.112463951E0
2.060253399E1,6.311069489E0,6.061019897E0,8.608179688E-1
2.061253399E1,7.473981380E0,7.231110096E0,4.415954113E0
2.062253399E1,9.678369522E0,8.373085022E0,5.001597404E0
2.063253399E1,1.186182022E1,8.333004951E0,3.994817495E0
2.064253399E1,1.212323570E1,8.765507698E0,3.069393158E0
2.065253399E1,1.170628643E1,8.495118141E0,2.572882652E0
2.066253399E1,1.126600742E1,8.187042236E0,2.056631088E0
2.067253399E1,1.039202881E1,7.261020184E0,2.296511650E0
2.068253399E1,8.889336586E0,6.346961975E0,1.403988719E0
2.069253399E1,7.080362320E0,5.844469070E0,3.978067636E-1
2.070253399E1,5.922834396E0,5.690730572E0,2.919243574E-1
2.071253399E1,4.349553585E0,5.790630817E0,1.956132501E-1
2.072253399E1,2.690130949E0,5.575276852E0,-4.247260094E-2
2.073253399E1,1.418345571E0,4.981258392E0,-8.913264424E-2
2.074253399E1,-9.690931439E-2,4.304687977E0,3.469592705E-2
2.075253399E1,1.185643673E0,3.044866800E0,3.092723191E-1
2.076253399E1,3.506681681E0,2.313261271E0,1.347757339E0
2.077253399E1,5.455037594E0,2.215753794E0,2.566302299E0
2.078253399E1,6.337988853E0,1.905285001E0,4.114458561E0
2.079253399E1,6.482754707E0,1.750947952E0,5.057230473E0
2.080253399E1,6.726822853E0,2.382055044E0,5.258825779E0
2.081253399E1,7.155735970E0,3.103491068E0,4.704289436E0
2.082253399E1,7.751548767E0,4.453042984E0,4.045066833E0
2.083253399E1,7.884350777E0,5.513661385E0,3.607180119E0
2.084253399E1,7.291528702E0,5.919843197E0,3.626322746E0
2.085253399E1,6.392425537E0,6.091528416E0,3.604787350E0
2.086253399E1,5.822933674E0,6.163911343E0,3.416352510E0
2.087253399E1,5.689534187E0,6.233901024E0,3.693919897E0
2.088253399E1,5.790630817E0,6.250650883E0,4.116253376E0
2.089253399E1,5.714658737E0,6.156134605E0,4.618147850E0
2.090253399E1,4.558327198E0,6.072385788E0,4.866403103E0
2.091253399E1,3.774079561E0,5.881557941E0,4.709074974E0
2.092253399E1,3.515056372E0,5.625525951E0,4.232305050E0
2.093253399E1,2.944368362E0,5.496313572E0,3.406183004E0
2.094253399E1,2.633899450E0,5.056034088E0,3.354139090E0
2.095253399E1,2.883351326E0,4.570291042E0,3.826123476E0
2.096253399E1,3.702294827E0,4.332803726E0,4.330410957E0
2.097253399E1,4.621138573E0,4.532006264E0,4.775475979E0
