"Time (s)","Gyroscope x (rad/s)","Gyroscope y (rad/s)","Gyroscope z (rad/s)"
5.271354400E-2,8.231408894E-2,7.192938030E-2,-1.603521220E-2
6.109328400E-2,5.726861581E-2,1.108720452E-1,-1.450804994E-2
7.109328400E-2,4.474587739E-2,1.438587606E-1,-1.313360315E-2
8.109328400E-2,4.688390717E-2,1.684460938E-1,-1.053742506E-2
9.109328400E-2,5.665775016E-2,1.769981980E-1,-3.207042580E-3
1.010932840E-1,5.772676691E-2,1.831068546E-1,2.901609987E-3
1.110932840E-1,5.054909736E-2,1.733330190E-1,6.566801574E-3
1.210932840E-1,3.039054573E-2,1.056796908E-1,3.817907767E-3
1.310932840E-1,2.092213556E-2,7.360926270E-2,4.886921961E-3
1.410932840E-1,1.130100712E-2,5.268712714E-2,4.734205548E-3
1.510932840E-1,1.679879380E-3,3.176499158E-2,9.468411095E-3
1.610932840E-1,-5.497787148E-3,2.550362423E-2,1.191187184E-2
1.710932840E-1,-6.872233935E-3,2.794708498E-2,1.435533352E-2
1.810932840E-1,3.970623948E-3,5.009094998E-2,4.734205548E-3
1.910932840E-1,1.496619824E-2,5.772676691E-2,-5.039638374E-3
2.010932840E-1,1.511891466E-2,3.802636266E-2,-7.483099122E-3
2.110932840E-1,7.941247895E-3,1.954768784E-2,-5.192354787E-3
2.210932840E-1,6.872233935E-3,7.330383174E-3,3.359758761E-3
2.310932840E-1,1.069014147E-2,-7.330383174E-3,6.872233935E-3
2.410932840E-1,1.343903504E-2,-2.580905706E-2,1.527163107E-2
2.510932840E-1,9.926560335E-3,-4.795292020E-2,2.611448988E-2
2.610932840E-1,2.748893574E-3,-5.787948146E-2,3.100141138E-2
2.710932840E-1,1.572977938E-2,-9.926560335E-3,3.130684420E-2
2.810932840E-1,3.512475174E-3,-1.618792862E-2,3.130684420E-2
2.910932840E-1,-1.725694351E-2,-2.748893574E-2,2.871066704E-2
3.010932840E-1,-3.695734590E-2,-2.397646010E-2,1.786780916E-2
3.110932840E-1,-3.741549700E-2,1.298088674E-2,9.162978968E-4
3.210932840E-1,-3.741549700E-2,1.298088674E-2,9.162978968E-4
3.310932840E-1,-6.261368748E-3,9.422596544E-2,-4.734205548E-3
3.410932840E-1,-1.099557430E-2,7.819075137E-2,-7.330383174E-3
3.510932840E-1,-2.183843218E-2,5.604688451E-2,-8.552113548E-3
3.610932840E-1,-2.916881628E-2,4.734205827E-2,-8.704829961E-3
3.710932840E-1,-3.054326214E-2,6.337726861E-2,-1.466076635E-2
3.810932840E-1,-1.359175146E-2,8.933904022E-2,-3.161227703E-2
3.910932840E-1,-1.466076635E-2,6.841690838E-2,-1.710422710E-2
4.010932840E-1,-2.428189293E-2,4.627304152E-2,-1.237002108E-2
4.110932840E-1,-3.145955876E-2,2.779436857E-2,-1.481348183E-2
4.210932840E-1,-3.390302137E-2,2.657263726E-2,-1.725694351E-2
4.310932840E-1,-1.313360315E-2,4.886921868E-2,-8.704829961E-3
4.410932840E-1,4.123340361E-3,3.802636266E-2,-2.596177394E-3
4.510932840E-1,1.175915636E-2,1.970040426E-2,-2.748893574E-3
4.610932840E-1,1.069014147E-2,-1.221730490E-3,-4.581489484E-4
4.710932840E-1,4.734205548E-3,-2.458732575E-2,-1.832595794E-3
4.810932840E-1,2.443460980E-3,-3.436116874E-2,-5.497787148E-3
4.910932840E-1,5.955935922E-3,-1.343903504E-2,-5.345070735E-3
5.010932840E-1,3.359758761E-3,1.221730490E-3,-5.345070735E-3
5.110932840E-1,1.985311974E-3,1.221730467E-2,-3.970623948E-3
5.210932840E-1,7.941247895E-3,1.832595654E-2,-5.192354787E-3
5.310932840E-1,3.130684420E-2,2.351831272E-2,-7.635815535E-3
5.410932840E-1,3.130684420E-2,2.107485011E-2,-5.192354787E-3
5.510932840E-1,2.397646010E-2,1.603521220E-2,-3.054326226E-4
5.610932840E-1,1.664607786E-2,1.725694351E-2,4.581489135E-3
5.710932840E-1,1.038470957E-2,2.687807009E-2,9.468411095E-3
5.810932840E-1,1.252273750E-2,4.902193695E-2,7.177666761E-3
5.910932840E-1,1.389718428E-2,4.535674304E-2,9.621127509E-3
6.010932840E-1,1.038470957E-2,3.054326214E-2,1.313360315E-2
6.110932840E-1,4.276056774E-3,1.939497143E-2,1.557706390E-2
6.210932840E-1,-2.901609987E-3,5.955935922E-3,1.679879427E-2
6.310932840E-1,8.093964309E-3,1.343903504E-2,1.313360315E-2
6.410932840E-1,2.015855350E-2,2.458732575E-2,1.069014147E-2
6.510932840E-1,2.153299935E-2,2.336559631E-2,1.191187184E-2
6.610932840E-1,2.031126991E-2,1.725694351E-2,1.557706390E-2
6.710932840E-1,1.679879427E-2,8.552113548E-3,1.908953860E-2
6.810932840E-1,1.557706390E-2,6.108652335E-3,2.153299935E-2
6.910932840E-1,1.084285788E-2,-1.114829071E-2,2.397646010E-2
7.010932840E-1,7.177666761E-3,-1.618792862E-2,2.641992271E-2
7.110932840E-1,-3.054326226E-4,-1.007927675E-2,3.008511290E-2
7.210932840E-1,-1.007927675E-2,-1.023199316E-2,3.252857551E-2
7.310932840E-1,-1.970040426E-2,-2.626720630E-2,3.848451003E-2
7.410932840E-1,-6.307183951E-2,-1.102611795E-1,4.917465150E-2
7.510932840E-1,-1.429424733E-1,-2.092213482E-1,5.971207842E-2
7.610932840E-1,-1.866193265E-1,-1.496619880E-1,5.772676691E-2
7.710932840E-1,-1.165225431E-1,-3.726277873E-2,5.085453019E-2
7.810932840E-1,-1.114829071E-2,-2.611448988E-2,3.726277873E-2
7.910932840E-1,9.422596544E-2,-4.123340361E-3,3.481931984E-2
8.010932840E-1,6.123924255E-2,-1.802052557E-2,3.848451003E-2
8.110932840E-1,1.374446787E-2,-4.795292020E-2,4.199698567E-2
8.210932840E-1,-1.313360315E-2,-6.918048859E-2,4.321871698E-2
8.310932840E-1,-6.872233935E-3,-8.261952549E-2,4.795292020E-2
8.410932840E-1,5.222897977E-2,-9.178250283E-2,6.246097013E-2
8.510932840E-1,7.574728876E-2,-1.038470939E-1,7.330382615E-2
8.610932840E-1,8.811730891E-2,-1.221730486E-1,8.185594529E-2
8.710932840E-1,6.887505949E-2,-1.580613852E-1,1.108720452E-1
8.810932840E-1,3.695734590E-2,-1.511891484E-1,1.122464910E-1
8.910932840E-1,1.398881376E-1,-1.279762685E-1,1.220203340E-1
9.010932840E-1,2.052507252E-1,-1.641700417E-1,1.351539344E-1
9.110932840E-1,2.680171132E-1,-1.684460938E-1,1.484402567E-1
9.210932840E-1,3.147483170E-1,-1.850921661E-1,1.605048478E-1
9.310932840E-1,3.397938013E-1,-2.278527319E-1,1.748601794E-1
9.410932840E-1,3.788891733E-1,-3.170390725E-1,1.986839175E-1
9.510932840E-1,3.964515328E-1,-3.426954150E-1,2.107485086E-1
9.610932840E-1,4.040873647E-1,-3.744603992E-1,2.228130996E-1
9.710932840E-1,4.082106948E-1,-4.112650156E-1,2.310597748E-1
9.810932840E-1,4.208861589E-1,-4.442517459E-1,2.284636050E-1
9.910932840E-1,4.604396820E-1,-4.755585790E-1,2.134974003E-1
1.001093284E0,6.047565937E-1,-5.351179838E-1,2.008219510E-1
1.011093284E0,6.834055185E-1,-5.453499556E-1,2.054034323E-1
1.021093284E0,7.388415337E-1,-5.546656251E-1,2.174680233E-1
1.031093284E0,7.622070909E-1,-5.655084848E-1,2.321287990E-1
1.041093284E0,7.780895829E-1,-5.568036437E-1,2.467895597E-1
1.051093284E0,8.443684578E-1,-5.523748994E-1,2.527455091E-1
1.061093284E0,8.779660463E-1,-5.876523852E-1,2.587014437E-1
1.071093284E0,9.101892114E-1,-6.265950203E-1,2.681698501E-1
1.081093284E0,9.411906004E-1,-6.531676650E-1,2.641992271E-1
1.091093284E0,9.831876159E-1,-6.747006774E-1,2.432770878E-1
1.101093284E0,1.101848245E0,-7.454082966E-1,1.939497143E-1
1.111093284E0,1.187522054E0,-8.387179971E-1,1.652390510E-1
1.121093284E0,1.293812633E0,-9.083566070E-1,1.291979998E-1
1.131093284E0,1.397201538E0,-9.254608750E-1,9.239336848E-2
1.141093284E0,1.505172014E0,-9.288206100E-1,4.214970022E-2
1.151093284E0,1.726305127E0,-9.503536224E-1,-6.948592514E-2
1.161093284E0,1.811979055E0,-9.248499870E-1,-8.536841720E-2
1.171093284E0,1.782046676E0,-7.622070909E-1,-5.146539584E-2
1.181093284E0,1.725694299E0,-8.836165667E-1,6.154467165E-2
1.191093284E0,1.820378423E0,-1.124297500E0,1.039998084E-1
1.201093284E0,2.058463097E0,-1.329089999E0,1.415680200E-1
1.211093284E0,2.140929937E0,-1.341918230E0,1.962404549E-1
1.221093284E0,2.162921190E0,-1.332449794E0,2.793181241E-1
1.231093284E0,2.154521704E0,-1.353677392E0,3.268128932E-1
1.241093284E0,2.173153162E0,-1.360702276E0,3.291036487E-1
1.251093284E0,2.253176451E0,-1.272737741E0,3.039054573E-1
1.261093284E0,2.454609156E0,-1.066265345E0,1.910481006E-1
1.271093284E0,2.510198116E0,-1.102000952E0,9.682214260E-2
1.281093284E0,2.556318283E0,-1.282511592E0,3.711006418E-2
1.291093284E0,2.602896690E0,-1.491885662E0,7.009678334E-2
1.301093284E0,2.667495728E0,-1.562898755E0,1.941024363E-1
1.311093284E0,2.709492683E0,-1.108109593E0,5.053382516E-1
1.321093284E0,2.568688393E0,-9.243918061E-1,4.688390791E-1
1.331093284E0,2.413834095E0,-9.152288437E-1,2.689334154E-1
1.341093284E0,2.311361313E0,-9.934195876E-1,2.076941915E-2
1.351093284E0,2.261270523E0,-1.151022792E0,-1.740965992E-1
1.361093284E0,2.342668295E0,-1.182940602E0,-2.267837226E-1
1.371093284E0,2.431701899E0,-8.918632865E-1,-1.522581577E-1
1.381093284E0,2.385428667E0,-8.213083148E-1,-1.237002090E-1
1.391093284E0,2.284483194E0,-9.046914577E-1,-1.166752651E-1
1.401093284E0,2.259743214E0,-9.944885969E-1,-9.269879758E-2
1.411093284E0,2.298991442E0,-9.966266751E-1,-9.392052889E-2
1.421093284E0,2.249511242E0,-9.567676783E-1,-6.185010448E-2
1.431093284E0,2.139402866E0,-9.914342761E-1,-1.298088674E-2
1.441093284E0,2.005165100E0,-1.061836481E0,3.924809024E-2
1.451093284E0,1.914451718E0,-1.194394231E0,9.239336848E-2
1.461093284E0,1.702328682E0,-1.549001575E0,1.653917581E-1
1.471093284E0,1.558317184E0,-1.515403986E0,2.280054539E-1
1.481093284E0,1.463174939E0,-1.223715782E0,2.750420868E-1
1.491093284E0,1.367421865E0,-1.010065675E0,2.640464902E-1
1.501093284E0,1.263880134E0,-8.541423082E-1,2.260201424E-1
1.511093284E0,1.156215191E0,-5.618433356E-1,1.508837193E-1
1.521093284E0,1.131322384E0,-5.251913667E-1,1.059851199E-1
1.531093284E0,1.095739484E0,-5.316054821E-1,8.277224004E-2
1.541093284E0,1.028086185E0,-5.285511613E-1,6.337726861E-2
1.551093284E0,9.460775256E-1,-5.476406813E-1,3.894266114E-2
1.561093284E0,8.665123582E-1,-5.667302608E-1,7.330383174E-3
1.571093284E0,7.322747111E-1,-5.433646441E-1,-6.933320314E-2
1.581093284E0,6.598871946E-1,-5.413793325E-1,-1.191187203E-1
1.591093284E0,5.681046844E-1,-5.752823353E-1,-1.606575549E-1
1.601093284E0,4.700607955E-1,-5.885686874E-1,-1.765400618E-1
1.611093284E0,3.367394805E-1,-5.238169432E-1,-1.857030392E-1
1.621093284E0,8.323039114E-2,-3.599523604E-1,-1.696678251E-1
1.631093284E0,5.757404864E-2,-4.879286289E-1,-1.227839142E-1
1.641093284E0,9.300423414E-2,-5.844452977E-1,-1.295034289E-1
1.651093284E0,3.161227703E-2,-3.614795208E-1,-2.099849284E-1
1.661093284E0,-2.214386500E-2,-1.608102769E-1,-2.380847335E-1
1.671093284E0,1.902845204E-1,-3.770565689E-1,-1.907426715E-1
1.681093284E0,2.964223623E-1,-4.250094891E-1,-1.557706445E-1
1.691093284E0,3.335324228E-1,-4.495968223E-1,-8.399397135E-2
1.701093284E0,3.026837409E-1,-4.340197444E-1,-8.384125680E-2
1.711093284E0,3.335324228E-1,-2.298380435E-1,-1.426370293E-1
1.721093284E0,6.462954283E-1,1.382082552E-1,-2.131919712E-1
1.731093284E0,8.003861904E-1,1.889100820E-1,-2.070833147E-1
1.741093284E0,8.239045143E-1,1.806633919E-1,-2.084577680E-1
1.751093284E0,7.591527700E-1,2.619084716E-1,-1.882992089E-1
1.761093284E0,6.867652535E-1,4.815145433E-1,-1.443169117E-1
1.771093284E0,7.307475209E-1,6.155994534E-1,-1.400408596E-1
1.781093284E0,8.894197941E-1,5.841398835E-1,-1.123992056E-1
1.791093284E0,1.136514783E0,4.445571899E-1,-1.012509167E-1
1.801093284E0,1.381929874E0,2.286163121E-1,-2.481640130E-1
1.811093284E0,1.611004353E0,3.161227703E-2,-5.096143484E-1
1.821093284E0,2.324036837E0,-6.948592514E-2,-9.715811610E-1
1.831093284E0,2.526386023E0,-2.813034356E-1,-1.057407737E0
1.841093284E0,2.552958488E0,-5.850561857E-1,-1.040761709E0
1.851093284E0,2.539977789E0,-9.706648588E-1,-9.657779336E-1
1.861093284E0,2.514015913E0,-1.513418674E0,-8.637634516E-1
1.871093284E0,2.426203966E0,-2.113593817E0,-7.032586336E-1
1.881093284E0,2.419179201E0,-2.697886467E0,-3.547599912E-1
1.891093284E0,2.518139362E0,-2.863125324E0,-2.177734673E-1
1.901093284E0,2.598009825E0,-2.979647875E0,-4.886921868E-2
1.911093284E0,2.624887943E0,-3.177110195E0,3.054326214E-2
1.921093284E0,2.564412355E0,-3.275612116E0,-2.000583708E-2
1.931093284E0,2.057088614E0,-2.796540976E0,-9.590584040E-2
1.941093284E0,1.648572564E0,-2.373975039E0,3.283400834E-2
1.951093284E0,1.300226688E0,-2.167655230E0,1.774563491E-1
1.961093284E0,1.104444385E0,-2.110234022E0,2.452623993E-1
1.971093284E0,1.116967082E0,-2.032501459E0,2.015855312E-1
1.981093284E0,1.350317597E0,-1.814422488E0,3.390302137E-2
1.991093284E0,1.294728875E0,-1.788460732E0,8.674286306E-2
2.001093284E0,1.200502872E0,-1.699121714E0,1.458440721E-1
2.011093284E0,1.141096234E0,-1.536784291E0,1.664607823E-1
2.021093284E0,1.176068306E0,-1.373072386E0,1.122464910E-1
2.031093284E0,1.391245604E0,-9.553932548E-1,-4.703662544E-2
2.041093284E0,1.439351201E0,-6.409503818E-1,-4.535674304E-2
2.051093284E0,1.450194120E0,-2.773328125E-1,6.154467165E-2
2.061093284E0,1.520138144E0,7.544185966E-2,2.415972054E-1
2.071093284E0,1.659568191E0,3.750712574E-1,4.431827366E-1
2.081093284E0,1.714087844E0,9.201157689E-1,8.561276197E-1
2.091093284E0,1.611615181E0,1.085049391E0,9.779952765E-1
2.101093284E0,1.430951834E0,1.098641157E0,1.039539933E0
2.111093284E0,1.213789225E0,1.093601465E0,1.055727839E0
2.121093284E0,9.899071455E-1,1.011745572E0,1.010523796E0
2.131093284E0,5.516113043E-1,4.173736870E-1,5.294674635E-1
2.141093284E0,2.892446816E-1,3.568980098E-1,9.498954564E-2
2.151093284E0,1.374446787E-2,5.888741016E-1,-4.978551865E-1
2.161093284E0,2.348776907E-1,1.104902506E0,-1.149801135E0
2.171093284E0,1.113149166E0,1.616960287E0,-1.533119082E0
2.181093284E0,1.689042449E0,1.511586070E0,-1.274570346E0
2.191093284E0,1.700954318E0,3.213151097E-1,-8.304712772E-1
2.201093284E0,1.415069342E0,1.864666194E-1,-9.637926221E-1
2.211093284E0,1.098793864E0,5.820018649E-1,-1.072221279E0
2.221093284E0,9.074403048E-1,9.075930119E-1,-1.137278318E0
2.231093284E0,8.889616728E-1,9.088147879E-1,-1.164156437E0
2.241093284E0,9.894489646E-1,7.014260292E-1,-1.151939154E0
2.251093284E0,9.779952765E-1,5.125159621E-1,-1.149343014E0
2.261093284E0,9.078984857E-1,1.805106848E-1,-1.127810001E0
2.271093284E0,7.686212063E-1,-2.174680233E-1,-1.047939301E0
2.281093284E0,5.922338367E-1,-5.815436840E-1,-9.628763199E-1
2.291093284E0,3.709479272E-1,-6.516404748E-1,-7.052439451E-1
2.301093284E0,2.787072659E-1,-1.763873398E-1,-5.829181671E-1
2.311093284E0,1.070541367E-1,2.600758672E-1,-4.850270152E-1
2.321093284E0,-1.259909570E-1,4.628831446E-1,-4.054618180E-1
2.331093284E0,-3.532328308E-1,5.850561857E-1,-3.408628106E-1
2.341093284E0,-7.515169382E-1,7.478517890E-1,-1.989893466E-1
2.351093284E0,-8.503243923E-1,6.927211881E-1,-1.722639948E-1
2.361093284E0,-8.347473741E-1,6.192646623E-1,-1.641700417E-1
2.371093284E0,-7.615962625E-1,5.453499556E-1,-1.853975952E-1
2.381093284E0,-6.843217611E-1,4.410447180E-1,-2.360994220E-1
2.391093284E0,-5.413793325E-1,2.715296149E-1,-3.324634135E-1
2.401093284E0,-4.500549734E-1,2.406809032E-1,-3.170390725E-1
2.411093284E0,-3.368921876E-1,2.133446932E-1,-2.562579811E-1
2.421093284E0,-2.681698501E-1,2.235766798E-1,-2.050980031E-1
2.431093284E0,-3.097086847E-1,2.072360367E-1,-1.916589737E-1
2.441093284E0,-4.584543705E-1,1.027780771E-1,-2.298380435E-1
2.451093284E0,-8.469646573E-1,-3.100140989E-1,-4.144720733E-1
2.461093284E0,-9.993755221E-1,-5.224425197E-1,-4.483750761E-1
2.471093284E0,-1.094823241E0,-6.582072973E-1,-4.610505402E-1
2.481093284E0,-1.138041973E0,-7.492262125E-1,-5.030475259E-1
2.491093284E0,-1.125366449E0,-8.013024926E-1,-5.899431109E-1
2.501093284E0,-1.001666307E0,-6.760751009E-1,-8.202393055E-1
2.511093284E0,-9.343183637E-1,-5.386304259E-1,-9.147707224E-1
2.521093284E0,-9.042332768E-1,-3.834706545E-1,-9.934195876E-1
2.531093284E0,-9.266825914E-1,-2.399173230E-1,-1.052368045E0
2.541093284E0,-1.010829210E0,-7.391469181E-2,-1.072221279E0
2.551093284E0,-1.228755474E0,3.387247920E-1,-9.804387093E-1
2.561093284E0,-1.293048978E0,4.841107130E-1,-1.013730884E0
2.571093284E0,-1.243721604E0,5.768095255E-1,-1.068250656E0
2.581093284E0,-1.101848245E0,6.214026809E-1,-1.089020014E0
2.591093284E0,-9.915869832E-1,6.508769393E-1,-1.079246163E0
2.601093284E0,-1.111469269E0,8.339837790E-1,-9.767735004E-1
2.611093284E0,-1.264032960E0,9.914342761E-1,-9.146180153E-1
2.621093284E0,-1.387580395E0,1.167363524E0,-8.451320529E-1
2.631093284E0,-1.476613998E0,1.343750834E0,-7.744244337E-1
2.641093284E0,-1.582751870E0,1.512960553E0,-7.672467232E-1
2.651093284E0,-1.646434546E0,1.943467736E0,-9.246972799E-1
2.661093284E0,-1.543656468E0,2.189035654E0,-9.967793822E-1
2.671093284E0,-1.414153099E0,2.361146927E0,-1.066876173E0
2.681093284E0,-1.301448345E0,2.386192322E0,-1.134071350E0
2.691093284E0,-1.220661521E0,2.287995815E0,-1.177595496E0
2.701093284E0,-1.154077172E0,1.930639625E0,-1.172250390E0
2.711093284E0,-1.173166752E0,1.766164184E0,-1.174388409E0
2.721093284E0,-1.242958069E0,1.623068929E0,-1.159116745E0
2.731093284E0,-1.316414595E0,1.499216080E0,-1.065654397E0
2.741093284E0,-1.338863850E0,1.312902093E0,-9.017898440E-1
2.751093284E0,-1.302670121E0,1.048855662E0,-7.432702780E-1
2.761093284E0,-1.006400466E0,4.598288238E-1,-4.992296100E-1
2.771093284E0,-7.608326674E-1,2.443460971E-1,-4.897612035E-1
2.781093284E0,-4.492913783E-1,1.452332139E-1,-5.751296282E-1
2.791093284E0,-7.513642311E-2,1.779145002E-1,-6.218608022E-1
2.801093284E0,3.466660380E-1,2.350303978E-1,-5.966626406E-1
2.811093284E0,1.126893640E0,2.968805134E-1,-4.488332272E-1
2.821093284E0,1.409724236E0,3.762930036E-1,-2.803871334E-1
2.831093284E0,1.522428870E0,5.283984542E-1,-7.590000331E-2
2.841093284E0,1.497536182E0,6.806566119E-1,5.070181563E-2
2.851093284E0,1.448361516E0,6.908885837E-1,9.361509979E-2
2.861093284E0,1.397659659E0,3.822489381E-1,1.676825136E-1
2.871093284E0,1.381319046E0,3.106249869E-1,2.370157093E-1
2.881093284E0,1.333824277E0,2.776382565E-1,3.344487250E-1
2.891093284E0,1.246317863E0,2.037235647E-1,4.392121136E-1
2.901093284E0,1.067334294E0,7.987063378E-2,5.158756971E-1
2.911093284E0,5.053382516E-1,-4.074471295E-1,6.178901792E-1
2.921093284E0,2.736676335E-1,-6.698137522E-1,6.035348773E-1
2.931093284E0,5.986479297E-2,-9.908234477E-1,5.801692605E-1
2.941093284E0,-1.039998084E-1,-1.155909777E0,6.052147150E-1
2.951093284E0,-1.841758788E-1,-1.241889000E0,7.049384713E-1
2.961093284E0,-2.409863323E-1,-1.418429136E0,1.022741079E0
2.971093284E0,-2.799290121E-1,-1.323286891E0,1.044121385E0
2.981093284E0,-4.169155359E-1,-1.158505917E0,9.011789560E-1
2.991093284E0,-6.349944472E-1,-9.856310487E-1,6.801984310E-1
3.001093284E0,-8.901833892E-1,-7.996225953E-1,4.619668424E-1
3.011093284E0,-1.260367751E0,-6.389650702E-1,1.423316002E-1
3.021093284E0,-1.375515819E0,-7.906123400E-1,7.590000331E-2
3.031093284E0,-1.463938594E0,-9.051495790E-1,-1.496619824E-2
3.041093284E0,-1.507768154E0,-8.312348723E-1,-1.438587606E-1
3.051093284E0,-1.490511179E0,-7.264714837E-1,-2.251038402E-1
3.061093284E0,-1.439351201E0,-5.836817622E-1,-2.232712507E-1
3.071093284E0,-1.256244421E0,-1.291979998E-1,-1.481348183E-2
3.081093284E0,-1.076650023E0,6.780604273E-2,-1.893682219E-2
3.091093284E0,-7.916813493E-1,1.582140923E-1,-6.169738993E-2
3.101093284E0,-4.367686510E-1,1.557706445E-1,-2.687807009E-2
3.111093284E0,-5.528330430E-2,8.704829961E-2,7.712173462E-2
3.121093284E0,-5.528330430E-2,8.704829961E-2,7.712173462E-2
3.131093284E0,7.539604306E-1,-2.565633953E-1,2.203696370E-1
3.141093284E0,8.457429409E-1,-3.390302062E-1,2.368630022E-1
3.151093284E0,8.680394888E-1,-3.631593883E-1,2.110539377E-1
3.161093284E0,8.452847600E-1,-4.134030640E-1,1.631010175E-1
3.171093284E0,6.673702598E-1,-6.575964093E-1,6.200282276E-2
3.181093284E0,5.103778839E-1,-6.763805151E-1,4.398229718E-2
3.191093284E0,3.330742717E-1,-6.340781450E-1,2.855795063E-2
3.201093284E0,1.620320082E-1,-5.952881575E-1,-9.926560335E-3
3.211093284E0,7.330383174E-3,-5.992587805E-1,-3.909537569E-2
3.221093284E0,-2.156354338E-1,-5.303837657E-1,-8.338310570E-2
3.231093284E0,-2.932153046E-1,-4.048509300E-1,-1.009454802E-1
3.241093284E0,-3.558290005E-1,-2.916881442E-1,-8.796459436E-2
3.251093284E0,-3.869831264E-1,-2.382374406E-1,-4.734205827E-2
3.261093284E0,-3.824016452E-1,-2.141082734E-1,2.229658142E-2
3.271093284E0,-3.029891551E-1,-4.367686436E-2,1.695151031E-1
3.281093284E0,-2.678644061E-1,1.012509167E-1,1.898263693E-1
3.291093284E0,-2.667953968E-1,2.373211533E-1,1.881465018E-1
3.301093284E0,-3.242167234E-1,3.214678466E-1,1.617265791E-1
3.311093284E0,-4.486805201E-1,3.572034538E-1,9.254608303E-2
3.321093284E0,-7.299839854E-1,2.564106882E-1,4.612032697E-2
3.331093284E0,-7.573201656E-1,1.809688359E-1,9.101892263E-2
3.341093284E0,-6.624833345E-1,1.461495161E-1,1.504255682E-1
3.351093284E0,-4.792237878E-1,1.186605766E-1,1.682933718E-1
3.361093284E0,-2.312124968E-1,1.264491081E-1,1.423316002E-1
3.371093284E0,3.176499158E-2,2.168571651E-1,7.635815442E-2
3.381093284E0,4.315762818E-1,3.593414724E-1,-5.787948146E-2
3.391093284E0,5.138903856E-1,3.492622077E-1,-7.269296050E-2
3.401093284E0,5.242751241E-1,3.028364480E-1,-6.688974798E-2
3.411093284E0,4.815145433E-1,2.814561725E-1,-6.078109145E-2
3.421093284E0,4.114177525E-1,2.892446816E-1,-5.696318299E-2
3.431093284E0,2.750420868E-1,2.936734557E-1,-3.955352306E-2
3.441093284E0,2.225076705E-1,2.820670307E-1,-2.000583708E-2
3.451093284E0,1.834122837E-1,2.544253767E-1,4.276056774E-3
3.461093284E0,1.603521258E-1,2.307543457E-1,2.504547499E-2
3.471093284E0,1.530217379E-1,2.356412709E-1,2.871066704E-2
3.481093284E0,1.195768714E-1,2.660318017E-1,4.428773187E-3
3.491093284E0,7.528914511E-2,2.716823220E-1,3.359758761E-3
3.501093284E0,2.015855350E-2,2.515237629E-1,-2.748893574E-3
3.511093284E0,-2.733621933E-2,2.153300047E-1,-7.788531948E-3
3.521093284E0,-7.070764899E-2,1.510364264E-1,7.788531948E-3
3.531093284E0,-1.980730593E-1,4.886921961E-3,3.420845419E-2
3.541093284E0,-2.519819140E-1,-9.162978269E-3,2.809980139E-2
3.551093284E0,-2.750420868E-1,-3.649919853E-2,3.039054573E-2
3.561093284E0,-2.735149264E-1,-6.459899992E-2,4.123340547E-2
3.571093284E0,-2.585487068E-1,-8.659014851E-2,4.474587739E-2
3.581093284E0,-2.254092693E-1,-8.002334833E-2,3.619376570E-2
3.591093284E0,-2.257147133E-1,-4.688390717E-2,2.779436857E-2
3.601093284E0,-2.444988191E-1,-1.893682219E-2,2.428189293E-2
3.611093284E0,-2.680171132E-1,4.581489484E-4,2.199114859E-2
3.621093284E0,-2.814561725E-1,-2.138028387E-3,3.054326214E-2
3.631093284E0,-2.791654170E-1,3.970623948E-3,4.153883830E-2
3.641093284E0,-2.325869352E-1,1.542434748E-2,4.520402849E-2
3.651093284E0,-1.957823038E-1,2.443460934E-2,4.276056588E-2
3.661093284E0,-1.577559561E-1,1.634064503E-2,3.298672289E-2
3.671093284E0,-1.110247597E-1,9.621127509E-3,1.939497143E-2
3.681093284E0,-6.566801667E-2,1.496619824E-2,1.328631863E-2
3.691093284E0,-1.756237634E-2,5.803219974E-3,1.679879427E-2
3.701093284E0,-5.345070735E-3,8.246680722E-3,1.924225502E-2
3.711093284E0,-4.581489484E-4,1.206458826E-2,2.290744707E-2
3.721093284E0,6.108652451E-4,1.695151068E-2,2.657263726E-2
3.731093284E0,2.504547499E-2,3.802636266E-2,2.657263726E-2
3.741093284E0,6.047565863E-2,5.207626149E-2,5.803219974E-3
3.751093284E0,6.169738993E-2,4.596760869E-2,-3.970623948E-3
3.761093284E0,6.291911751E-2,4.596760869E-2,-8.857546374E-3
3.771093284E0,6.047565863E-2,4.596760869E-2,-3.970623948E-3
3.781093284E0,4.459316283E-2,3.833179548E-2,8.246680722E-3
3.791093284E0,-1.634064503E-2,-4.581489484E-4,3.741549700E-2
3.801093284E0,-3.726277873E-2,7.788531948E-3,3.756821156E-2
3.811093284E0,-4.856378585E-2,3.344487399E-2,4.016438872E-2
3.821093284E0,-5.971207842E-2,4.184427112E-2,4.871650413E-2
3.831093284E0,-7.437284291E-2,3.313944116E-2,5.115996301E-2
3.841093284E0,-7.284568250E-2,6.261368748E-3,3.878994286E-2
3.851093284E0,-5.558873713E-2,3.054326226E-4,2.412917651E-2
3.861093284E0,-4.199698567E-2,-9.162978269E-3,1.175915636E-2
3.871093284E0,-3.313944116E-2,-3.604105115E-2,6.719517522E-3
3.881093284E0,-2.657263726E-2,-7.040221989E-2,9.010262787E-3
3.891093284E0,4.581489135E-3,-1.178969890E-1,1.481348183E-2
3.901093284E0,1.679879427E-2,-1.165225431E-1,1.603521220E-2
3.911093284E0,1.786780916E-2,-9.193521738E-2,1.007927675E-2
3.921093284E0,4.123340361E-3,-6.872233748E-2,4.123340361E-3
3.931093284E0,-1.572977938E-2,-6.154467165E-2,1.679879380E-3
3.941093284E0,-2.183843218E-2,-6.276640296E-2,-1.053742506E-2
3.951093284E0,4.276056588E-2,-1.420261711E-2,-2.733621933E-2
3.961093284E0,9.269879758E-2,1.450804994E-2,-2.244929783E-2
3.971093284E0,1.354593635E-1,3.344487399E-2,-2.244929783E-2
3.981093284E0,1.401935667E-1,5.543602258E-2,-1.985312067E-2
3.991093284E0,1.154535338E-1,6.734789163E-2,-1.007927675E-2
4.001093284E0,6.765332818E-2,6.673702598E-2,4.734205548E-3
4.011093284E0,5.543602258E-2,6.169738993E-2,7.177666761E-3
4.021093284E0,3.955352306E-2,5.421429127E-2,-2.596177394E-3
4.031093284E0,2.733621933E-2,4.444044828E-2,-9.926560335E-3
4.041093284E0,2.351831272E-2,5.665775016E-2,-1.603521220E-2
4.051093284E0,4.764748737E-2,9.254608303E-2,-1.954768784E-2
4.061093284E0,4.642575979E-2,1.023199260E-1,-1.572977938E-2
4.071093284E0,3.543018550E-2,8.735372871E-2,-1.343903504E-2
4.081093284E0,2.229658142E-2,6.032294407E-2,-1.481348183E-2
4.091093284E0,7.788531948E-3,3.191770986E-2,-1.252273750E-2
4.101093284E0,-9.010262787E-3,-1.527163113E-4,-1.007927675E-2
4.111093284E0,-1.389718428E-2,-3.970623948E-3,-6.566801574E-3
4.121093284E0,-1.374446787E-2,-1.252273750E-2,-4.581489484E-4
4.131093284E0,-1.496619824E-2,-1.374446787E-2,4.428773187E-3
4.141093284E0,-1.756237634E-2,-1.527163084E-3,6.872233935E-3
4.151093284E0,-4.581489484E-4,1.099557430E-2,-2.748893574E-3
4.161093284E0,5.650503561E-3,8.552113548E-3,-3.970623948E-3
4.171093284E0,4.428773187E-3,6.108652335E-3,-2.748893574E-3
4.181093284E0,7.635815418E-4,3.512475174E-3,-1.679879380E-3
4.191093284E0,-9.010262787E-3,3.512475174E-3,2.138028387E-3
4.201093284E0,-2.871066704E-2,5.650503561E-3,4.581489135E-3
4.211093284E0,-3.115412779E-2,9.315694682E-3,2.138028387E-3
4.221093284E0,-3.130684420E-2,1.542434748E-2,-2.748893574E-3
4.231093284E0,-2.275473066E-2,2.672535367E-2,-8.704829961E-3
4.241093284E0,-1.313360315E-2,3.649919853E-2,-9.926560335E-3
4.251093284E0,-5.803219974E-3,4.276056588E-2,-7.483099122E-3
4.261093284E0,1.771509275E-2,3.069597855E-2,-2.748893574E-3
4.271093284E0,2.504547499E-2,3.084869497E-2,-3.970623948E-3
4.281093284E0,2.382374369E-2,2.718350291E-2,-3.970623948E-3
4.291093284E0,1.404990070E-2,2.336559631E-2,-3.970623948E-3
4.301093284E0,4.276056774E-3,2.947424725E-2,-1.374446787E-2
4.311093284E0,1.282817032E-2,2.474004216E-2,-2.474004216E-2
4.321093284E0,6.719517522E-3,1.847867295E-2,-1.252273750E-2
4.331093284E0,3.054326167E-3,1.710422710E-2,-6.414085161E-3
4.341093284E0,6.719517522E-3,2.199114859E-2,-5.192354787E-3
4.351093284E0,1.649336144E-2,2.580905706E-2,-6.414085161E-3
4.361093284E0,3.726277873E-2,4.321871698E-2,-5.192354787E-3
4.371093284E0,3.100141138E-2,5.543602258E-2,-2.596177394E-3
4.381093284E0,1.359175146E-2,6.872233748E-2,4.886921961E-3
4.391093284E0,-5.955935922E-3,6.841690838E-2,4.886921961E-3
4.401093284E0,-2.061670274E-2,5.971207842E-2,0.000000000E0
4.411093284E0,-2.153299935E-2,2.901609987E-2,1.069014193E-3
4.421093284E0,-1.649336144E-2,1.191187184E-2,-3.054326226E-4
4.431093284E0,-1.634064503E-2,4.581489135E-3,2.138028387E-3
4.441093284E0,-1.771509275E-2,2.046398632E-2,2.138028387E-3
4.451093284E0,-1.420261711E-2,2.916881628E-2,-1.527163113E-4
4.461093284E0,-3.054326214E-2,5.955936015E-2,-1.221730490E-3
4.471093284E0,-5.390885845E-2,6.307183951E-2,-2.443460980E-3
4.481093284E0,-6.856962293E-2,5.803219974E-2,-1.221730490E-3
4.491093284E0,-7.330382615E-2,5.054909736E-2,-1.221730490E-3
4.501093284E0,-6.704246253E-2,3.955352306E-2,-2.443460980E-3
4.511093284E0,-2.886338346E-2,2.168571576E-2,-3.970623948E-3
4.521093284E0,-1.282817032E-2,1.817324013E-2,-1.007927675E-2
4.531093284E0,-5.497787148E-3,1.588249579E-2,-8.857546374E-3
4.541093284E0,-5.497787148E-3,1.710422710E-2,-7.635815535E-3
4.551093284E0,-7.788531948E-3,9.621127509E-3,-7.635815535E-3
4.561093284E0,-1.145372353E-2,3.512475174E-3,-7.635815535E-3
4.571093284E0,-2.611448988E-2,-3.970623948E-3,-5.192354787E-3
4.581093284E0,-3.588833287E-2,-9.010262787E-3,-4.581489484E-4
4.591093284E0,-3.726277873E-2,3.207042580E-3,-3.054326226E-4
4.601093284E0,-3.008511290E-2,2.779436857E-2,-1.374446787E-3
4.611093284E0,-3.039054573E-2,5.238169432E-2,-6.108652335E-3
4.621093284E0,-1.053742506E-2,1.470658034E-1,-2.153299935E-2
4.631093284E0,-1.710422710E-2,1.886046380E-1,-2.015855350E-2
4.641093284E0,-3.222314268E-2,2.128865421E-1,-1.389718428E-2
4.651093284E0,-3.573561832E-2,2.005165219E-1,-1.679879380E-3
4.661093284E0,-3.161227703E-2,1.588249654E-1,9.010262787E-3
4.671093284E0,-9.361509979E-2,1.041525230E-1,2.351831272E-2
4.681093284E0,-1.447750628E-1,6.673702598E-2,2.336559631E-2
4.691093284E0,-1.826487035E-1,5.177082866E-2,3.817907767E-3
4.701093284E0,-1.762346178E-1,2.977968007E-2,-3.665191587E-3
4.711093284E0,-1.295034289E-1,1.695151068E-2,-1.237002108E-2
4.721093284E0,-5.345070735E-3,4.886921961E-3,-3.329215571E-2
4.731093284E0,3.649919853E-2,-6.872233935E-3,-3.466660157E-2
4.741093284E0,9.071348608E-2,-2.092213556E-2,-3.359758854E-2
4.751093284E0,1.485929638E-1,-3.741549700E-2,-3.985895589E-2
4.761093284E0,2.112066597E-1,-4.657847434E-2,-4.367686436E-2
4.771093284E0,2.397646159E-1,-6.612616032E-2,-9.773843922E-3
4.827252567E0,9.376781434E-2,1.518000066E-1,-1.557706390E-2
4.837252567E0,8.200865984E-2,1.075122803E-1,-1.221730467E-2
4.847252567E0,7.391469181E-2,5.955936015E-2,-2.596177394E-3
4.857252567E0,6.826419383E-2,9.162978269E-3,4.428773187E-3
4.867252567E0,7.208210230E-2,-4.276056774E-3,5.497787148E-3
4.877252567E0,7.467827946E-2,-9.162978269E-3,9.162978269E-3
4.887252567E0,6.872233748E-2,-2.641992271E-2,1.282817032E-2
4.897252567E0,6.490442902E-2,-2.031126991E-2,1.404990070E-2
4.907252567E0,6.352998316E-2,-9.315694682E-3,1.282817032E-2
4.917252567E0,5.879577994E-2,-1.802052557E-2,1.771509275E-2
4.927252567E0,5.024366826E-2,-2.046398632E-2,2.015855350E-2
4.937252567E0,5.497787148E-2,-8.246680722E-3,2.382374369E-2
4.947252567E0,6.215553731E-2,9.010262787E-3,2.519819140E-2
4.957252567E0,6.444628537E-2,2.871066704E-2,2.412917651E-2
4.967252567E0,5.222897977E-2,2.122756653E-2,2.397646010E-2
4.977252567E0,3.023782931E-2,1.237002108E-2,1.908953860E-2
4.987252567E0,2.657263726E-2,5.039638374E-3,1.420261711E-2
4.997252567E0,1.924225502E-2,-2.443460980E-3,1.175915636E-2
5.007252567E0,8.399397135E-3,-9.926560335E-3,1.053742506E-2
5.017252567E0,3.512475174E-3,-1.481348183E-2,8.093964309E-3
5.027252567E0,1.069014147E-2,-4.886921961E-3,8.093964309E-3
5.037252567E0,2.290744707E-2,2.596177394E-3,1.175915636E-2
5.047252567E0,4.123340547E-2,1.740965992E-2,1.542434748E-2
5.057252567E0,5.696318299E-2,3.344487399E-2,2.168571576E-2
5.067252567E0,6.536258012E-2,5.436700583E-2,2.168571576E-2
5.077252567E0,6.505715102E-2,7.528914511E-2,1.817324013E-2
5.087252567E0,6.261368841E-2,8.506298810E-2,1.466076635E-2
5.097252567E0,5.039638281E-2,6.658431143E-2,1.084285788E-2
5.107252567E0,4.810563847E-2,5.925392732E-2,2.290744567E-3
5.117252567E0,6.047565863E-2,4.230241850E-2,-5.192354787E-3
5.127252567E0,6.444628537E-2,1.908953860E-2,-9.010262787E-3
5.137252567E0,6.475171447E-2,-6.719517522E-3,-5.497787148E-3
5.147252567E0,6.261368841E-2,-3.008511290E-2,-6.719517522E-3
5.157252567E0,6.887505949E-2,-4.352414981E-2,-6.872233935E-3
5.167252567E0,6.887505949E-2,-4.596760869E-2,-7.635815418E-4
5.177252567E0,6.643159688E-2,-4.108068720E-2,4.123340361E-3
5.187252567E0,6.139195710E-2,-3.634648025E-2,1.267545391E-2
5.197252567E0,5.894849449E-2,-2.901609987E-2,1.649336144E-2
5.207252567E0,6.230825558E-2,-5.650503561E-3,1.771509275E-2
5.217252567E0,5.986479297E-2,-7.635815418E-4,2.153299935E-2
5.227252567E0,5.742133409E-2,-3.359758761E-3,2.382374369E-2
5.237252567E0,6.352998316E-2,-6.872233935E-3,1.527163107E-2
5.247252567E0,7.101308554E-2,-1.649336144E-2,9.162978269E-3
5.257252567E0,6.872233748E-2,-3.497203439E-2,5.345070735E-3
5.267252567E0,6.765332818E-2,-4.963280261E-2,1.145372353E-2
5.277252567E0,7.880161703E-2,-4.841107130E-2,1.145372353E-2
5.287252567E0,8.002334833E-2,-5.574145541E-2,1.374446787E-2
5.297252567E0,7.406741381E-2,-6.811147183E-2,1.863138936E-2
5.307252567E0,7.162395120E-2,-6.933320314E-2,2.107485011E-2
5.317252567E0,7.284568250E-2,-6.444628537E-2,2.474004216E-2
5.327252567E0,6.673702598E-2,-7.925976813E-2,2.962696366E-2
5.337252567E0,6.688974798E-2,-8.292495459E-2,3.207042441E-2
5.347252567E0,7.177666575E-2,-7.803803682E-2,3.329215571E-2
5.357252567E0,7.422012836E-2,-8.292495459E-2,3.802636266E-2
5.367252567E0,6.826419383E-2,-1.014036313E-1,4.535674304E-2
5.377252567E0,6.475171447E-2,-1.136209369E-1,4.886921868E-2
5.387252567E0,7.330382615E-2,-1.172861308E-1,5.009094998E-2
5.397252567E0,8.323039114E-2,-1.244637966E-1,5.253441259E-2
5.407252567E0,9.682214260E-2,-1.354593635E-1,5.482515693E-2
5.417252567E0,1.104138941E-1,-1.426370293E-1,5.238169432E-2
5.427252567E0,1.227839142E-1,-1.424843222E-1,4.505131021E-2
5.437252567E0,1.339322031E-1,-1.521054506E-1,4.001167417E-2
5.447252567E0,1.401935667E-1,-1.728748679E-1,3.756821156E-2
5.457252567E0,1.553124934E-1,-1.997529417E-1,4.092797264E-2
5.467252567E0,1.702786833E-1,-2.277000248E-1,4.321871698E-2
5.477252567E0,1.852448881E-1,-2.422080636E-1,4.199698567E-2
5.487252567E0,1.927279830E-1,-2.568688393E-1,4.306599870E-2
5.497252567E0,1.991420686E-1,-2.739730477E-1,4.902193695E-2
5.507252567E0,2.104430795E-1,-3.008511364E-1,5.742133409E-2
5.517252567E0,2.193006277E-1,-3.266601861E-1,6.826419383E-2
5.527252567E0,2.293798923E-1,-3.425426781E-1,7.422012836E-2
5.537252567E0,2.466368377E-1,-3.558290005E-1,8.032877743E-2
5.547252567E0,2.666426897E-1,-3.837760985E-1,8.979719132E-2
5.557252567E0,2.952006161E-1,-4.153883755E-1,9.208793938E-2
5.567252567E0,3.272710443E-1,-4.346306324E-1,8.827003092E-2
5.577252567E0,3.558290005E-1,-4.650211632E-1,8.445212245E-2
5.587252567E0,3.868304193E-1,-4.902193546E-1,7.070764899E-2
5.597252567E0,4.189008474E-1,-4.972442985E-1,5.726861581E-2
5.607252567E0,4.579962194E-1,-4.868595898E-1,3.894266114E-2
5.617252567E0,4.909829497E-1,-4.680754840E-1,2.428189293E-2
5.627252567E0,5.386304259E-1,-4.453207552E-1,1.221730467E-2
5.637252567E0,5.960517526E-1,-4.225660264E-1,2.443460980E-3
5.647252567E0,6.498079300E-1,-4.060726762E-1,-2.443460980E-3
5.657252567E0,6.902777553E-1,-4.007275999E-1,-7.330383174E-3
5.667252567E0,7.417431474E-1,-3.866777122E-1,-5.039638374E-3
5.677252567E0,7.909177542E-1,-3.862195611E-1,9.621127509E-3
5.687252567E0,8.341364861E-1,-4.089742899E-1,1.557706390E-2
5.697252567E0,8.788823485E-1,-4.637994468E-1,2.855795063E-2
5.707252567E0,9.138544202E-1,-5.137376785E-1,4.291328415E-2
5.717252567E0,9.706648588E-1,-5.450445414E-1,5.971207842E-2
5.727252567E0,1.027017236E0,-5.346598029E-1,7.315111160E-2
5.737252567E0,1.060003877E0,-5.233588219E-1,7.315111160E-2
5.747252567E0,1.070999503E0,-5.218316317E-1,5.482515693E-2
5.757252567E0,1.117730737E0,-5.283984542E-1,1.679879427E-2
5.767252567E0,1.213789225E0,-5.578727126E-1,-5.497787148E-3
5.777252567E0,1.343292713E0,-6.116288304E-1,-4.734205548E-3
5.787252567E0,1.443627238E0,-6.902777553E-1,1.542434748E-2
5.797252567E0,1.565189481E0,-7.959573865E-1,6.704246253E-2
5.807252567E0,1.676825047E0,-8.979719281E-1,1.200350225E-1
5.817252567E0,1.767843962E0,-1.024879217E0,1.973094791E-1
5.827252567E0,1.864818931E0,-1.124908328E0,3.016147017E-1
5.837252567E0,1.904983282E0,-1.210734963E0,3.622430861E-1
5.847252567E0,1.890627980E0,-1.352913857E0,3.517056704E-1
5.857252567E0,1.884061098E0,-1.545030951E0,2.481640130E-1
5.867252567E0,1.943620443E0,-1.722334504E0,7.987063378E-2
5.877252567E0,2.010204792E0,-1.873981833E0,-6.765332818E-2
5.887252567E0,2.063961029E0,-1.976607203E0,-2.538145185E-1
5.897252567E0,2.139097452E0,-1.890475273E0,-3.816380501E-1
5.907252567E0,2.268906355E0,-1.637424231E0,-4.221078753E-1
5.917252567E0,2.330451012E0,-1.309084177E0,-2.738203406E-1
5.927252567E0,2.272571325E0,-1.049619198E0,-8.445212245E-2
5.937252567E0,2.115120888E0,-7.863363028E-1,1.052215397E-1
5.947252567E0,1.838857055E0,-6.667594314E-1,9.911288321E-2
5.957252567E0,1.677435994E0,-6.253733039E-1,4.581489414E-2
5.967252567E0,1.640784025E0,-6.426302195E-1,-6.719517522E-3
5.977252567E0,1.646129131E0,-8.051204085E-1,-9.422596544E-2
5.987252567E0,1.617876649E0,-1.025642753E0,-1.808161139E-1
5.997252567E0,1.504102945E0,-1.181413412E0,-1.912008226E-1
6.007252567E0,1.388802171E0,-1.190270901E0,-1.434006095E-1
6.017252567E0,1.252731919E0,-1.094059706E0,-7.192938030E-2
6.027252567E0,1.154840708E0,-1.003346205E0,-5.299255997E-2
6.037252567E0,1.100015640E0,-9.352346659E-1,-7.452555746E-2
6.047252567E0,1.088561893E0,-8.993463516E-1,-1.524108797E-1
6.057252567E0,1.082147837E0,-8.868235946E-1,-2.011273801E-1
6.067252567E0,1.081078768E0,-8.964447379E-1,-2.512183189E-1
6.077252567E0,1.037401915E0,-9.471465349E-1,-2.440406680E-1
6.087252567E0,9.236282706E-1,-9.781479836E-1,-1.878410578E-1
6.097252567E0,7.761042714E-1,-9.677632451E-1,-1.583668143E-1
6.107252567E0,6.101016402E-1,-9.390525818E-1,-1.408044398E-1
6.117252567E0,5.656611919E-1,-9.233227968E-1,-1.834122837E-1
6.127252567E0,6.021603942E-1,-7.805330753E-1,-2.229658216E-1
6.137252567E0,7.218900323E-1,-6.145304441E-1,-2.759583890E-1
6.147252567E0,8.226827979E-1,-5.079344511E-1,-3.023782969E-1
6.157252567E0,9.049968719E-1,-4.036292136E-1,-3.666718602E-1
6.167252567E0,9.683741331E-1,-2.692388594E-1,-5.980370641E-1
6.177252567E0,1.142318010E0,-3.054326214E-2,-1.065807104E0
6.187252567E0,1.348179579E0,2.138028294E-1,-1.384678841E0
6.197252567E0,1.541060328E0,4.124867618E-1,-1.664760470E0
6.207252567E0,1.632231951E0,3.759875596E-1,-1.766469598E0
6.217252567E0,1.731039405E0,2.197587788E-1,-1.696678162E0
6.227252567E0,1.809688330E0,2.234239578E-1,-1.527010441E0
6.237252567E0,1.820836544E0,3.396410644E-1,-1.253037333E0
6.247252567E0,1.767233133E0,8.720101416E-2,-1.144456029E0
6.257252567E0,1.743714809E0,-4.648684561E-1,-1.133918643E0
6.267252567E0,1.727832317E0,-1.033889413E0,-1.125977397E0
6.277252567E0,1.790751457E0,-1.391703725E0,-1.032820463E0
6.287252567E0,2.005928755E0,-1.633759141E0,-7.194465399E-1
6.297252567E0,2.141693592E0,-1.700801611E0,-7.530441284E-1
6.307252567E0,2.157728672E0,-1.594816446E0,-8.049677014E-1
6.317252567E0,2.212095737E0,-1.513265967E0,-8.193230033E-1
6.327252567E0,2.281123638E0,-1.317330956E0,-8.695666790E-1
6.337252567E0,2.282192469E0,-1.081536889E0,-9.257662892E-1
6.347252567E0,2.266004562E0,-6.154467463E-1,-1.007469535E0
6.357252567E0,2.160325050E0,-2.863430977E-1,-1.314276576E0
6.367252567E0,2.071596861E0,-4.230241850E-2,-1.502117634E0
6.377252567E0,2.134668589E0,3.466660157E-2,-1.544572830E0
6.387252567E0,2.298686028E0,-3.985895589E-2,-1.480431914E0
6.397252567E0,2.450791359E0,-3.491095006E-1,-1.361618638E0
6.407252567E0,2.261270523E0,-7.565566301E-1,-1.203557253E0
6.417252567E0,1.790446043E0,-1.354593635E0,-8.848382831E-1
6.427252567E0,1.685835361E0,-2.009135723E0,-6.684392691E-1
6.437252567E0,1.854281425E0,-2.590526819E0,-7.243334651E-1
6.447252567E0,1.956754088E0,-2.872135639E0,-8.017606139E-1
6.457252567E0,2.041664362E0,-2.999042988E0,-7.512115240E-1
6.467252567E0,2.256841660E0,-3.135724068E0,-6.388123035E-1
6.477252567E0,2.666579485E0,-3.232088089E0,-8.109236360E-1
6.487252567E0,3.162296772E0,-2.542421103E0,-1.032667756E0
6.497252567E0,3.449097872E0,-1.697289109E0,-9.749409556E-1
6.507252567E0,3.448487043E0,-1.050535560E0,-6.577491760E-1
6.517252567E0,3.169932365E0,-1.394910812E0,-3.503312171E-1
6.527252567E0,3.026379108E0,-1.833970189E0,3.344487399E-2
6.537252567E0,2.736218214E0,-2.109164953E0,4.364632070E-1
6.547252567E0,2.252718210E0,-2.097100496E0,1.068556070E0
6.557252567E0,1.722487330E0,-2.068695068E0,1.721570969E0
6.567252567E0,9.445503950E-1,-2.078927040E0,2.246456861E0
6.577252567E0,2.015855312E-1,-2.432770729E0,1.771051049E0
6.587252567E0,5.032002330E-1,-2.498897076E0,1.721112877E-1
6.597252567E0,1.888184428E0,-1.590540409E0,-1.665065885E0
6.607252567E0,3.220787048E0,-6.253733039E-1,-1.955226898E0
6.617252567E0,3.662748098E0,2.829833329E-1,-1.915673375E0
6.627252567E0,3.502243280E0,1.161713004E0,-1.766622305E0
6.637252567E0,3.249192238E0,2.308154345E0,-1.634369969E0
6.647252567E0,3.068681479E0,2.980106115E0,-1.787849903E0
6.657252567E0,2.826473475E0,2.765234232E0,-2.206139803E0
6.667252567E0,2.393828154E0,2.098627567E0,-2.698497295E0
6.677252567E0,1.767691255E0,1.276250243E0,-3.082731485E0
6.687252567E0,7.622070909E-1,1.237002090E-1,-3.319136381E0
6.697252567E0,9.773843922E-3,-5.546656251E-1,-2.985756636E0
6.707252567E0,-1.898263693E-1,-9.960157871E-1,-2.051438093E0
6.717252567E0,-7.024950534E-2,-9.776898026E-1,-1.146899462E0
6.727252567E0,1.469130963E-1,-6.058256030E-1,-7.779368758E-1
6.737252567E0,2.967278063E-1,-4.917465150E-1,-7.238753438E-1
6.747252567E0,2.499966025E-1,-4.836525619E-1,-7.225008607E-1
6.757252567E0,1.127046347E-1,-6.201809645E-1,-6.887505651E-1
6.767252567E0,-1.262963861E-1,-6.560692787E-1,-6.751587987E-1
6.777252567E0,-4.245513380E-1,-4.326453209E-1,-6.612616181E-1
6.787252567E0,-7.040221691E-1,-2.438879460E-1,-5.560401082E-1
6.797252567E0,-8.927795291E-1,-1.666134894E-1,-4.978551865E-1
6.807252567E0,-9.816604257E-1,-1.102611795E-1,-4.497495294E-1
6.817252567E0,-1.039234519E0,-1.053742506E-2,-4.149302244E-1
6.827252567E0,-1.042441487E0,5.726861581E-2,-4.889976382E-1
6.837252567E0,-9.909761548E-1,5.467243865E-2,-5.746715069E-1
6.847252567E0,-9.056077003E-1,1.075122803E-1,-6.574437022E-1
6.857252567E0,-8.167268038E-1,1.751656085E-1,-7.403686643E-1
6.867252567E0,-8.281805515E-1,3.188716471E-1,-7.956519723E-1
6.877252567E0,-9.627236128E-1,4.902193546E-1,-8.129089475E-1
6.887252567E0,-1.167821646E0,7.269296646E-1,-7.953465581E-1
6.897252567E0,-1.344972610E0,8.671231866E-1,-7.686212063E-1
6.907252567E0,-1.594816446E0,1.044274092E0,-7.354817390E-1
6.917252567E0,-1.816255093E0,1.202335477E0,-6.963863969E-1
6.927252567E0,-1.948660135E0,1.293507099E0,-6.236934066E-1
6.937252567E0,-1.995391369E0,1.312138557E0,-5.416847467E-1
6.947252567E0,-2.004554272E0,1.255022645E0,-4.199698567E-1
6.957252567E0,-2.043955088E0,1.157131433E0,-3.080287874E-1
6.967252567E0,-2.130239725E0,1.077260852E0,-2.302961946E-1
6.977252567E0,-2.205834389E0,1.030835152E0,-1.864666194E-1
6.987252567E0,-2.269822598E0,9.390525818E-1,-1.160643995E-1
6.997252567E0,-2.299449444E0,8.487972617E-1,-5.177082866E-2
7.007252567E0,-2.293951750E0,7.970264554E-1,-1.985311974E-3
7.017252567E0,-2.269364357E0,7.896960378E-1,4.062253982E-2
7.027252567E0,-2.229658127E0,7.533495426E-1,6.368270516E-2
7.037252567E0,-2.181246996E0,7.144069076E-1,8.903361112E-2
7.047252567E0,-2.201711178E0,5.607742667E-1,1.394299865E-1
7.057252567E0,-2.306474447E0,2.638937831E-1,1.820378453E-1
7.067252567E0,-2.415208578E0,-8.399397135E-3,2.112066597E-1
7.077252567E0,-2.503631115E0,-2.266310006E-1,2.577851415E-1
7.087252567E0,-2.459190845E0,-2.568688393E-1,2.600758672E-1
7.097252567E0,-2.342973709E0,-1.039998084E-1,1.238529310E-1
7.107252567E0,-2.259132385E0,8.155050874E-2,-9.468411095E-3
7.117252567E0,-2.231948853E0,1.620320082E-1,-9.819658846E-2
7.127252567E0,-2.117411613E0,3.654501438E-1,-8.521570265E-2
7.137252567E0,-1.936290145E0,5.422956347E-1,1.802052557E-2
7.147252567E0,-1.740507841E0,4.838052690E-1,1.259909570E-1
7.157252567E0,-1.621694565E0,2.971859276E-1,1.809688359E-1
7.167252567E0,-1.477072120E0,-1.435533352E-2,2.681698501E-1
7.177252567E0,-1.156826019E0,-5.555819273E-1,3.538436890E-1
7.187252567E0,-4.999932051E-1,-1.113454580E0,3.631593883E-1
7.197252567E0,1.782199293E-1,-1.284191489E0,2.280054539E-1
7.207252567E0,9.352346659E-1,-1.253190041E0,-8.200865984E-2
7.217252567E0,1.291063666E0,-1.242041707E0,-2.973386645E-1
7.227252567E0,1.334893227E0,-1.328937292E0,-4.492913783E-1
7.237252567E0,1.247386813E0,-1.314123869E0,-6.285803318E-1
7.247252567E0,1.181107998E0,-1.199128509E0,-5.154175758E-1
7.257252567E0,9.778425694E-1,-9.989174008E-1,-3.065016270E-1
7.267252567E0,7.817547917E-1,-7.987062931E-1,-1.244637966E-1
7.277252567E0,6.663012505E-1,-6.806566119E-1,3.634648025E-2
7.287252567E0,6.259841323E-1,-5.702427030E-1,1.554652005E-1
7.297252567E0,6.094908118E-1,-4.161519408E-1,1.818851233E-1
7.307252567E0,5.876523852E-1,-3.226895630E-1,9.819658846E-2
7.317252567E0,5.529857874E-1,-4.056145251E-1,1.685988009E-1
7.327252567E0,3.233004212E-1,-6.097962260E-1,5.012149215E-1
7.337252567E0,7.788532227E-2,-9.560040832E-1,5.229006410E-1
7.347252567E0,-2.693915665E-1,-1.304655433E0,5.949827433E-1
7.357252567E0,-5.345070958E-1,-1.426675797E0,6.178901792E-1
7.367252567E0,-6.198754907E-1,-1.370781660E0,5.377141237E-1
7.377252567E0,-5.601634383E-1,-1.231046200E0,4.444044530E-1
7.387252567E0,-4.216497242E-1,-9.862419367E-1,3.381139040E-1
7.397252567E0,-3.359758854E-1,-7.350236177E-1,2.977968156E-1
7.407252567E0,-3.478877544E-1,-5.364924073E-1,2.976440787E-1
7.417252567E0,-4.071416855E-1,-4.036292136E-1,3.216205537E-1
7.427252567E0,-5.033529401E-1,-2.455678284E-1,3.556762934E-1
7.437252567E0,-5.874996781E-1,-7.819075137E-2,3.115412891E-1
7.447252567E0,-6.088799238E-1,8.750644326E-2,2.196060568E-1
7.457252567E0,-5.754350424E-1,2.738203406E-1,8.994990587E-2
7.467252567E0,-5.195409060E-1,4.366159439E-1,2.840523422E-2
7.477252567E0,-4.547891617E-1,5.832235813E-1,2.306016348E-2
7.487252567E0,-4.069889784E-1,5.845980644E-1,8.521570265E-2
7.497252567E0,-3.634648323E-1,4.327980280E-1,1.380555481E-1
7.507252567E0,-2.948952019E-1,2.130392492E-1,1.160643995E-1
7.517252567E0,-1.039998084E-1,-7.788532227E-2,-1.056796908E-1
7.527252567E0,1.751656085E-1,-1.206458881E-1,-2.382374406E-1
7.537252567E0,4.361577928E-1,2.748893574E-2,-3.404046595E-1
7.547252567E0,6.860016584E-1,1.950187236E-1,-4.192062616E-1
7.557252567E0,8.576548100E-1,3.258966208E-1,-4.712825418E-1
7.567252567E0,9.989174008E-1,5.396994352E-1,-5.045747161E-1
7.577252567E0,1.031751394E0,8.049677014E-1,-5.080871582E-1
7.587252567E0,9.529497623E-1,1.042899728E0,-4.798346460E-1
7.597252567E0,8.242099285E-1,1.144303322E0,-4.315762818E-1
7.607252567E0,6.351471543E-1,1.145372391E0,-3.628539443E-1
7.617252567E0,4.625777006E-1,9.909761548E-1,-2.571742535E-1
7.627252567E0,3.026837409E-1,7.973318696E-1,-1.504255682E-1
7.637252567E0,1.730275750E-1,6.470590234E-1,-5.711590126E-2
7.647252567E0,-6.108652451E-4,4.726569951E-1,7.299839705E-2
7.657252567E0,-1.513418704E-1,3.443752825E-1,1.469130963E-1
7.667252567E0,-2.704605758E-1,2.313652188E-1,1.661553532E-1
7.677252567E0,-3.475823104E-1,1.003346145E-1,2.021963894E-1
7.687252567E0,-3.585779071E-1,-1.130100712E-2,1.942551434E-1
7.697252567E0,-3.318525553E-1,-1.039998084E-1,1.571450830E-1
7.707252567E0,-2.704605758E-1,-2.231185287E-1,9.285151958E-2
7.717252567E0,-2.154827118E-1,-3.190243840E-1,4.092797264E-2
7.727252567E0,-1.857030392E-1,-3.405573666E-1,6.566801574E-3
7.737252567E0,-1.369865239E-1,-3.152064681E-1,-3.726277873E-2
7.747252567E0,-4.948008433E-2,-2.367102802E-1,-1.078177169E-1
7.757252567E0,8.674286306E-2,-1.169806942E-1,-1.941024363E-1
7.767252567E0,2.180788964E-1,-1.221730490E-3,-2.412917763E-1
7.777252567E0,2.736676335E-1,7.299839705E-2,-2.397646159E-1
7.787252567E0,2.703078687E-1,1.635591686E-1,-2.258674204E-1
7.797252567E0,2.443460971E-1,2.892446816E-1,-1.860084683E-1
7.807252567E0,2.420553565E-1,3.993531466E-1,-1.354593635E-1
7.817252567E0,2.583959997E-1,4.691445231E-1,-9.117163718E-2
7.827252567E0,2.690861523E-1,5.106833577E-1,-4.444044828E-2
7.837252567E0,2.616030276E-1,5.164865851E-1,-9.010262787E-3
7.847252567E0,2.496911734E-1,4.831944108E-1,6.108652451E-4
7.857252567E0,2.144137025E-1,3.478877544E-1,8.399397135E-3
7.867252567E0,1.715004146E-1,2.296853364E-1,2.000583708E-2
7.877252567E0,1.006400511E-1,8.781187981E-2,3.161227703E-2
7.887252567E0,2.321287990E-2,-1.970040426E-2,4.825835302E-2
7.897252567E0,-6.169738993E-2,-1.189660057E-1,7.360926270E-2
7.907252567E0,-1.333213449E-1,-1.896736622E-1,9.285151958E-2
7.917252567E0,-2.087631971E-1,-2.481640130E-1,1.072068512E-1
7.927252567E0,-2.525927722E-1,-2.829833329E-1,1.047633886E-1
7.937252567E0,-2.645046413E-1,-3.161227703E-1,8.750644326E-2
7.947252567E0,-2.631302178E-1,-3.356704414E-1,6.902777404E-2
7.957252567E0,-2.545780838E-1,-3.378084898E-1,4.581489414E-2
7.967252567E0,-2.339613885E-1,-3.118467033E-1,3.008511290E-2
7.977252567E0,-2.084577680E-1,-2.869539559E-1,2.168571576E-2
7.987252567E0,-1.821905524E-1,-2.142609805E-1,1.954768784E-2
7.997252567E0,-1.547016203E-1,-1.478293836E-1,1.985312067E-2
8.007252567E0,-1.101084575E-1,-6.887505949E-2,2.015855350E-2
8.017252567E0,-5.054909736E-2,-1.053742506E-2,1.191187184E-2
8.027252567E0,-1.802052557E-2,3.649919853E-2,5.955935922E-3
8.037252567E0,-5.955935922E-3,6.230825558E-2,3.665191587E-3
8.047252567E0,1.114829071E-2,6.490442902E-2,2.443460980E-3
8.057252567E0,3.466660157E-2,4.444044828E-2,-3.817907767E-3
8.067252567E0,5.345070735E-2,1.038470957E-2,-1.023199316E-2
8.077252567E0,6.230825558E-2,-1.282817032E-2,-2.138028294E-2
8.087252567E0,7.116580009E-2,-2.733621933E-2,-2.748893574E-2
8.097252567E0,7.254024595E-2,-4.077525437E-2,-2.641992271E-2
8.107252567E0,5.421429127E-2,-4.841107130E-2,-2.031126991E-2
8.117252567E0,2.825251780E-2,-4.260785133E-2,-1.527163107E-2
8.127252567E0,1.481348183E-2,-4.153883830E-2,-1.771509275E-2
8.137252567E0,8.704829961E-3,-5.268712714E-2,-1.664607786E-2
8.147252567E0,-1.069014193E-3,-5.161811411E-2,-1.282817032E-2
8.157252567E0,-1.847867295E-2,-2.718350291E-2,-6.566801574E-3
8.167252567E0,-3.711006418E-2,-1.282817032E-2,7.635815418E-4
8.177252567E0,-5.451972410E-2,6.566801574E-3,8.246680722E-3
8.187252567E0,-6.185010448E-2,1.389718428E-2,1.435533352E-2
8.197252567E0,-5.604688451E-2,3.344487399E-2,1.450804994E-2
8.207252567E0,-4.642575979E-2,5.207626149E-2,7.330383174E-3
8.217252567E0,-3.420845419E-2,6.200282276E-2,2.443460980E-3
8.227252567E0,-2.428189293E-2,5.482515693E-2,-6.108652335E-3
8.237252567E0,-1.557706390E-2,4.886921868E-2,-1.481348183E-2
8.247252567E0,-5.650503561E-3,3.543018550E-2,-1.603521220E-2
8.257252567E0,-3.207042580E-3,3.054326214E-2,-1.603521220E-2
8.267252567E0,4.123340361E-3,3.191770986E-2,-1.114829071E-2
8.277252567E0,1.282817032E-2,2.092213556E-2,-7.635815535E-3
8.287252567E0,2.031126991E-2,1.847867295E-2,-7.635815535E-3
8.297252567E0,2.886338346E-2,2.474004216E-2,-8.857546374E-3
8.307252567E0,2.626720630E-2,3.084869497E-2,-6.414085161E-3
8.317252567E0,2.122756653E-2,3.940080851E-2,-3.817907767E-3
8.327252567E0,1.863138936E-2,5.406157300E-2,-2.596177394E-3
8.337252567E0,1.847867295E-2,6.872233748E-2,-1.221730490E-3
8.347252567E0,2.840523422E-2,6.643159688E-2,-2.596177394E-3
8.357252567E0,3.222314268E-2,5.543602258E-2,-2.596177394E-3
8.367252567E0,2.748893574E-2,3.451388702E-2,9.162978968E-4
8.377252567E0,1.542434748E-2,9.773843922E-3,4.581489135E-3
8.387252567E0,7.024950348E-3,-2.596177394E-3,6.872233935E-3
8.397252567E0,-1.374446787E-3,-1.359175146E-2,1.053742506E-2
8.407252567E0,-1.725694351E-2,-3.344487399E-2,1.527163107E-2
8.417252567E0,-3.558290005E-2,-3.008511290E-2,2.153299935E-2
8.427252567E0,-3.680463135E-2,-3.130684420E-2,1.908953860E-2
8.437252567E0,-3.069597855E-2,-3.726277873E-2,1.649336144E-2
8.447252567E0,-2.809980139E-2,-4.337143153E-2,1.282817032E-2
8.457252567E0,-2.809980139E-2,-4.948008433E-2,1.038470957E-2
8.467252567E0,-2.809980139E-2,-4.703662544E-2,9.162978269E-3
8.477252567E0,-2.687807009E-2,-4.337143153E-2,9.162978269E-3
8.487252567E0,-2.794708498E-2,-5.436700583E-2,1.038470957E-2
8.497252567E0,-3.054326214E-2,-5.192354694E-2,9.162978269E-3
8.507252567E0,-2.825251780E-2,-3.115412779E-2,4.428773187E-3
8.517252567E0,-1.985312067E-2,-2.000583708E-2,1.985311974E-3
8.527252567E0,-1.618792862E-2,-1.252273750E-2,-4.123340361E-3
8.537252567E0,-1.404990070E-2,1.695151068E-2,-8.857546374E-3
8.547252567E0,-1.298088674E-2,2.916881628E-2,-1.114829071E-2
8.557252567E0,-4.123340361E-3,9.621127509E-3,-8.857546374E-3
8.567252567E0,-2.901609987E-3,8.552113548E-3,-7.635815535E-3
8.577252567E0,-5.345070735E-3,1.084285788E-2,-3.970623948E-3
8.587252567E0,-4.276056774E-3,1.328631863E-2,-5.192354787E-3
8.597252567E0,-4.123340361E-3,5.955935922E-3,-6.414085161E-3
8.607252567E0,-7.788531948E-3,3.512475174E-3,-3.970623948E-3
8.617252567E0,-1.267545391E-2,-3.054326226E-4,-3.054326226E-4
8.627252567E0,-1.389718428E-2,-3.970623948E-3,7.635815418E-4
8.637252567E0,-7.635815535E-3,-8.704829961E-3,-4.581489484E-4
8.647252567E0,4.581489135E-3,-1.114829071E-2,-4.581489484E-4
8.657252567E0,7.024950348E-3,-4.886921961E-3,-4.581489484E-4
8.667252567E0,4.581489135E-3,-0.000000000E0,1.985311974E-3
8.677252567E0,-6.566801574E-3,4.734205548E-3,4.581489135E-3
8.687252567E0,-5.345070735E-3,1.069014193E-3,3.207042580E-3
8.697252567E0,-1.527163084E-3,-1.374446787E-3,1.985311974E-3
8.707252567E0,-6.414085161E-3,-5.039638374E-3,7.635815418E-4
8.717252567E0,-1.023199316E-2,-1.527163084E-3,3.207042580E-3
8.727252567E0,-1.023199316E-2,-3.054326226E-4,3.207042580E-3
8.737252567E0,-1.053742506E-2,3.405573592E-2,2.290744567E-3
8.747252567E0,-4.001167417E-2,3.497203439E-2,1.206458826E-2
8.757252567E0,-6.566801667E-2,1.496619824E-2,1.328631863E-2
8.767252567E0,-5.207626149E-2,7.788531948E-3,8.246680722E-3
8.777252567E0,-3.252857551E-2,1.420261711E-2,4.581489135E-3
8.787252567E0,-1.878410578E-2,2.138028387E-3,-3.054326226E-4
8.797252567E0,-1.359175146E-2,-2.474004216E-2,-2.901609987E-3
8.807252567E0,-1.970040426E-2,-2.474004216E-2,-6.566801574E-3
8.817252567E0,-4.214970022E-2,8.093964309E-3,-1.496619824E-2
8.827252567E0,-6.337726861E-2,3.008511290E-2,-3.313944116E-2
8.837252567E0,-7.574728876E-2,4.459316283E-2,-3.665191308E-2
8.847252567E0,-8.032877743E-2,1.237002108E-2,1.084285788E-2
8.857252567E0,-8.964447677E-2,-2.580905706E-2,2.153299935E-2
8.867252567E0,-1.215621829E-1,-3.222314268E-2,3.008511290E-2
8.877252567E0,-8.720101416E-2,-3.069597855E-2,2.397646010E-2
8.887252567E0,2.306016348E-2,-9.621127509E-3,4.428773187E-3
8.897252567E0,1.098030284E-1,3.436116874E-2,-1.511891466E-2
8.907252567E0,1.417207420E-1,3.466660157E-2,-2.122756653E-2
8.917252567E0,1.502728462E-1,3.237585723E-2,-2.367102914E-2
8.927252567E0,1.708895564E-1,4.978551716E-2,-2.855795063E-2
8.937252567E0,1.252273768E-1,7.620543987E-2,-2.947424725E-2
8.987938950E0,7.269296050E-2,4.749477282E-2,-3.940080851E-2
8.997938950E0,5.283984542E-2,6.811147183E-2,-3.313944116E-2
9.007938950E0,2.809980139E-2,9.346238524E-2,-2.932153270E-2
9.017938950E0,8.399397135E-3,9.697485715E-2,-2.672535367E-2
9.027938950E0,4.734205548E-3,8.949175477E-2,-1.695151068E-2
9.037938950E0,8.704829961E-3,6.750060618E-2,-7.330383174E-3
9.047938950E0,1.863138936E-2,5.406157300E-2,-7.483099122E-3
9.057938950E0,3.115412779E-2,2.840523422E-2,-2.748893574E-3
9.067938950E0,3.268129006E-2,2.748893574E-3,7.635815418E-4
9.077938950E0,2.290744707E-2,1.527163113E-4,-1.679879380E-3
9.087938950E0,1.679879427E-2,-1.221730490E-3,-4.581489484E-4
9.097938950E0,1.557706390E-2,-4.886921961E-3,7.635815418E-4
9.107938950E0,1.450804994E-2,-1.710422710E-2,6.872233935E-3
9.117938950E0,1.466076635E-2,-2.199114859E-2,6.719517522E-3
9.127938950E0,1.206458826E-2,-1.847867295E-2,5.650503561E-3
9.137938950E0,9.621127509E-3,-1.099557430E-2,1.985311974E-3
9.147938950E0,1.664607786E-2,8.704829961E-3,-1.679879380E-3
9.157938950E0,1.786780916E-2,1.359175146E-2,-2.748893574E-3
9.167938950E0,1.053742506E-2,1.221730467E-2,-5.192354787E-3
9.177938950E0,9.162978269E-3,2.336559631E-2,-1.130100712E-2
9.187938950E0,1.649336144E-2,3.451388702E-2,-1.252273750E-2
9.197938950E0,2.015855350E-2,3.573561832E-2,-1.007927675E-2
9.207938950E0,2.122756653E-2,3.817907721E-2,-1.007927675E-2
9.217938950E0,1.404990070E-2,3.313944116E-2,-1.007927675E-2
9.227938950E0,1.160643995E-2,2.092213556E-2,-1.007927675E-2
9.237938950E0,1.191187184E-2,2.596177394E-3,-1.145372353E-2
9.247938950E0,2.657263726E-2,-9.162978968E-4,-1.145372353E-2
9.257938950E0,3.756821156E-2,2.748893574E-3,-1.023199316E-2
9.267938950E0,3.405573592E-2,-9.162978968E-4,-7.788531948E-3
9.277938950E0,3.054326214E-2,-1.450804994E-2,-4.123340361E-3
9.287938950E0,3.298672289E-2,-2.183843218E-2,-6.108652451E-4
9.297938950E0,2.687807009E-2,-2.306016348E-2,6.108652451E-4
9.307938950E0,2.932153270E-2,-1.572977938E-2,3.054326167E-3
9.317938950E0,3.420845419E-2,-1.450804994E-2,4.276056774E-3
9.327938950E0,3.787364438E-2,-1.572977938E-2,4.276056774E-3
9.337938950E0,3.665191308E-2,-1.328631863E-2,5.497787148E-3
9.347938950E0,3.069597855E-2,-3.405573592E-2,3.054326167E-3
9.357938950E0,2.718350291E-2,-5.375614017E-2,2.901609987E-3
9.367938950E0,3.940080851E-2,-4.627304152E-2,1.679879380E-3
9.377938950E0,5.635231733E-2,-2.764165215E-2,3.054326167E-3
9.387938950E0,6.627888232E-2,-2.519819140E-2,1.404990070E-2
9.397938950E0,6.017022580E-2,-3.756821156E-2,2.000583708E-2
9.407938950E0,5.543602258E-2,-4.749477282E-2,2.244929783E-2
9.417938950E0,6.780604273E-2,-5.345070735E-2,2.367102914E-2
9.427938950E0,8.750644326E-2,-6.185010448E-2,2.840523422E-2
9.437938950E0,9.743300825E-2,-8.017606288E-2,3.558290005E-2
9.447938950E0,1.000291854E-1,-8.872817457E-2,3.313944116E-2
9.457938950E0,1.001819000E-1,-9.728029370E-2,3.069597855E-2
9.467938950E0,1.125519201E-1,-1.069014147E-1,3.054326214E-2
9.477938950E0,1.421788931E-1,-1.201877370E-1,3.649919853E-2
9.487938950E0,1.777617931E-1,-1.246165112E-1,4.382958263E-2
9.497938950E0,2.147191316E-1,-1.316414624E-1,4.856378585E-2
9.507938950E0,2.492330223E-1,-1.496619880E-1,5.329799280E-2
9.517938950E0,2.790127099E-1,-1.690569520E-1,6.414084882E-2
9.527938950E0,3.124575615E-1,-1.957823038E-1,8.109235764E-2
9.537938950E0,3.436116874E-1,-2.371684313E-1,9.789115191E-2
9.547938950E0,3.747658134E-1,-2.809980214E-1,1.134682223E-1
9.557938950E0,3.972151279E-1,-3.164281845E-1,1.241583601E-1
9.567938950E0,4.366159439E-1,-3.220787048E-1,1.313360333E-1
9.577938950E0,4.746423066E-1,-3.217732608E-1,1.301143020E-1
9.587938950E0,5.117523670E-1,-3.446807265E-1,1.348485053E-1
9.597938950E0,5.377141237E-1,-3.663664162E-1,1.383609772E-1
9.607938950E0,5.739079118E-1,-4.163046777E-1,1.466076523E-1
9.617938950E0,6.174320579E-1,-4.648684561E-1,1.559233516E-1
9.627938950E0,6.717990637E-1,-4.949535728E-1,1.631010175E-1
9.637938950E0,7.235698700E-1,-5.079344511E-1,1.592831165E-1
9.647938950E0,7.544185519E-1,-5.320636034E-1,1.430951804E-1
9.657938950E0,7.783950567E-1,-5.928447247E-1,1.146899462E-1
9.667938950E0,8.013024926E-1,-6.733261943E-1,8.124507964E-2
9.677938950E0,8.310821652E-1,-7.023423314E-1,6.154467165E-2
9.687938950E0,8.397870064E-1,-7.058547735E-1,5.910121277E-2
9.697938950E0,8.397870064E-1,-7.070765495E-1,6.398813426E-2
9.707938950E0,8.516988754E-1,-6.690501571E-1,7.269296050E-2
9.717938950E0,8.657487631E-1,-6.125451326E-1,7.544185966E-2
9.727938950E0,8.784242272E-1,-5.351179838E-1,6.963863969E-2
9.737938950E0,8.938485980E-1,-4.918992519E-1,5.161811411E-2
9.747938950E0,9.358455539E-1,-5.097670555E-1,2.947424725E-2
9.757938950E0,1.003651619E0,-5.395467281E-1,1.572977938E-2
9.767938950E0,1.065807104E0,-4.995350540E-1,-9.773843922E-3
9.777938950E0,1.087950945E0,-5.028948188E-1,-2.321287990E-2
9.787938950E0,1.089630842E0,-5.445863605E-1,-1.130100712E-2
9.797938950E0,1.083674908E0,-5.595525503E-1,1.786780916E-2
9.807938950E0,1.128420830E0,-4.870123267E-1,6.582073122E-2
9.817938950E0,1.197448611E0,-3.932445049E-1,1.078177169E-1
9.827938950E0,1.226311922E0,-3.488040566E-1,1.201877370E-1
9.837938950E0,1.247692227E0,-3.915646076E-1,1.137736514E-1
9.847938950E0,1.245401502E0,-4.134030640E-1,7.941248268E-2
9.857938950E0,1.186452985E0,-5.145012736E-1,5.100724846E-2
9.867938950E0,1.134071350E0,-6.658431292E-1,5.146539584E-2
9.877938950E0,1.126435518E0,-8.659014702E-1,7.971791178E-2
9.887938950E0,1.172097683E0,-1.004262447E0,1.472185254E-1
9.897938950E0,1.205084443E0,-1.103222609E0,1.588249654E-1
9.907938950E0,1.194241524E0,-1.120479584E0,1.490511149E-1
9.917938950E0,1.137278318E0,-1.074512005E0,1.322523206E-1
9.927938950E0,1.078024387E0,-1.047786593E0,5.436700583E-2
9.937938950E0,1.053284407E0,-1.037707329E0,-3.833179548E-2
9.947938950E0,1.055269718E0,-1.001819015E0,-9.789115191E-2
9.957938950E0,1.079856992E0,-1.006247759E0,-1.273654103E-1
9.967938950E0,1.129184365E0,-1.030224204E0,-1.250746548E-1
9.977938950E0,1.140027285E0,-1.000749946E0,-1.004873365E-1
9.987938950E0,1.130558848E0,-9.263771176E-1,-6.230825558E-2
9.997938950E0,1.138194680E0,-8.295549750E-1,-4.581489414E-2
1.000793895E1,1.159116745E0,-7.250970602E-1,-4.413501546E-2
1.001793895E1,1.175762892E0,-6.695083380E-1,-8.170322329E-2
1.002793895E1,1.180497050E0,-6.604980230E-1,-1.389718503E-1
1.003793895E1,1.169348836E0,-6.615670323E-1,-2.012801021E-1
1.004793895E1,1.184009552E0,-6.537785530E-1,-2.525927722E-1
1.005793895E1,1.225090265E0,-7.154759169E-1,-3.249803185E-1
1.006793895E1,1.307251573E0,-9.286679029E-1,-3.958406746E-1
1.007793895E1,1.409418821E0,-1.183704138E0,-4.071416855E-1
1.008793895E1,1.482111812E0,-1.309542418E0,-3.506366611E-1
1.009793895E1,1.520901799E0,-1.374752283E0,-2.264782935E-1
1.010793895E1,1.517083883E0,-1.350928545E0,-1.067487001E-1
1.011793895E1,1.486845970E0,-1.275333881E0,-9.529497474E-2
1.012793895E1,1.450041413E0,-1.176221013E0,-1.264491081E-1
1.013793895E1,1.382998943E0,-1.114065528E0,-1.942551434E-1
1.014793895E1,1.333976984E0,-1.127504468E0,-2.895501256E-1
1.015793895E1,1.297019601E0,-1.225548387E0,-3.900374472E-1
1.016793895E1,1.270752430E0,-1.305266261E0,-4.369213581E-1
1.017793895E1,1.256397128E0,-1.335962296E0,-4.419609904E-1
1.018793895E1,1.220966935E0,-1.242041707E0,-4.376849532E-1
1.019793895E1,1.152397275E0,-1.148426652E0,-4.297437072E-1
1.020793895E1,1.075886369E0,-1.107651353E0,-4.257730842E-1
1.021793895E1,9.815077186E-1,-1.129489779E0,-4.243986309E-1
1.022793895E1,7.973318696E-1,-1.127810001E0,-4.411974251E-1
1.023793895E1,5.595525503E-1,-1.055575132E0,-4.489859641E-1
1.024793895E1,2.333505303E-1,-9.695958495E-1,-4.528038502E-1
1.025793895E1,-2.351831272E-2,-8.399397135E-1,-4.918992519E-1
1.026793895E1,4.963280261E-2,-6.864598393E-1,-5.852088928E-1
1.027793895E1,4.476115108E-1,-3.733913898E-1,-7.673994899E-1
1.028793895E1,7.829765081E-1,-2.857322097E-1,-8.797986507E-1
1.029793895E1,9.801332951E-1,-2.426662147E-1,-9.506590366E-1
1.030793895E1,1.186147571E0,-2.223549485E-1,-1.107193232E0
1.031793895E1,1.386205912E0,-2.364048511E-1,-1.488525867E0
1.032793895E1,1.443780065E0,-1.218676195E-1,-1.687057137E0
1.033793895E1,1.404684663E0,-1.356120855E-1,-1.499063253E0
1.034793895E1,1.361007810E0,-2.890919745E-1,-1.308167934E0
1.035793895E1,1.224784851E0,-3.909537494E-1,-1.120479584E0
1.036793895E1,1.297477722E0,-7.493789196E-1,-1.128573537E0
1.037793895E1,1.934457541E0,-8.535314798E-1,-1.193630695E0
1.038793895E1,2.538145065E0,-8.078693151E-1,-1.142012596E0
1.039793895E1,3.067001581E0,-1.219439745E0,-1.034042120E0
1.040793895E1,3.826001644E0,-2.036319256E0,-9.859365225E-1
1.041793895E1,4.165948391E0,-2.591595888E0,-1.203251839E0
1.042793895E1,4.047134876E0,-3.208875179E0,-1.571298122E0
1.043793895E1,3.637397051E0,-3.598149061E0,-1.815644264E0
1.044793895E1,2.772564650E0,-3.451388597E0,-1.926974416E0
1.045793895E1,1.887573600E0,-2.694068432E0,-2.103209019E0
1.046793895E1,1.608713627E0,-2.218662500E0,-1.951256275E0
1.047793895E1,1.897958279E0,-2.146885872E0,-1.709659100E0
1.048793895E1,2.176512957E0,-2.247220516E0,-1.621541739E0
1.049793895E1,2.588846922E0,-2.449875116E0,-1.629482985E0
1.050793895E1,3.077386379E0,-2.664747000E0,-1.471574426E0
1.051793895E1,3.317303658E0,-2.809980154E0,-1.317636371E0
1.052793895E1,3.154049873E0,-2.694373846E0,-1.291063666E0
1.053793895E1,2.655125856E0,-2.320829868E0,-1.319927096E0
1.054793895E1,2.200031281E0,-1.791056871E0,-1.366505504E0
1.055793895E1,2.008372307E0,-1.218370676E0,-1.334893227E0
1.056793895E1,2.079385281E0,-9.702067375E-1,-1.311833143E0
1.057793895E1,2.279290915E0,-8.423831463E-1,-1.406669974E0
1.058793895E1,2.419942617E0,-7.939720750E-1,-1.450652242E0
1.059793895E1,2.498438835E0,-7.843509912E-1,-1.477530360E0
1.060793895E1,2.543031931E0,-8.283332586E-1,-1.403310180E0
1.061793895E1,2.557081938E0,-8.608618379E-1,-1.268003583E0
1.062793895E1,2.565328598E0,-8.191702962E-1,-1.048092008E0
1.063793895E1,2.585639954E0,-4.141666293E-1,-8.432994485E-1
1.064793895E1,2.568993807E0,2.083050460E-1,-8.167268038E-1
1.065793895E1,2.455983639E0,6.536257863E-1,-1.101084590E0
1.066793895E1,2.250580311E0,9.839512110E-1,-1.833817482E0
1.067793895E1,2.257757902E0,6.218608022E-1,-2.404670954E0
1.068793895E1,2.513557673E0,4.694499373E-1,-2.480418444E0
1.069793895E1,2.542726517E0,6.108652353E-1,-2.497980595E0
1.070793895E1,2.353358269E0,3.995058835E-1,-2.572048187E0
1.071793895E1,2.131767035E0,2.443460980E-3,-2.605645657E0
1.072793895E1,1.966986060E0,-7.773260027E-2,-2.599689722E0
1.073793895E1,1.824349046E0,-4.948008433E-2,-2.473546028E0
1.074793895E1,1.709506392E0,1.435533352E-2,-2.275167704E0
1.075793895E1,1.481348276E0,1.258382350E-1,-2.044718742E0
1.076793895E1,1.211498499E0,2.260201424E-1,-1.858099341E0
1.077793895E1,9.552405477E-1,1.979203373E-1,-1.725999713E0
1.078793895E1,7.898487449E-1,6.536258012E-2,-1.601841331E0
1.079793895E1,6.385068893E-1,-1.177442744E-1,-1.386511445E0
1.080793895E1,4.787656367E-1,-3.257438838E-1,-1.113912821E0
1.081793895E1,2.744311988E-1,-3.677408695E-1,-8.013024926E-1
1.082793895E1,-1.588249579E-2,-3.074179292E-1,-5.551238060E-1
1.083793895E1,-2.739730477E-1,-2.755002379E-1,-4.079052806E-1
1.084793895E1,-5.882632136E-1,-2.652682364E-1,-2.364048511E-1
1.085793895E1,-8.620835543E-1,-2.457205504E-1,-1.076650023E-1
1.086793895E1,-1.035569310E0,-9.865473956E-2,1.985311974E-3
1.087793895E1,-1.105971575E0,5.222897977E-2,6.154467165E-2
1.088793895E1,-1.179428101E0,1.554652005E-1,9.651670605E-2
1.089793895E1,-1.273195863E0,1.898263693E-1,1.065959856E-1
1.090793895E1,-1.345125318E0,2.591595948E-1,7.284568250E-2
1.091793895E1,-1.369254470E0,3.265074790E-1,3.298672289E-2
1.092793895E1,-1.378417373E0,3.721696436E-1,-3.390302137E-2
1.093793895E1,-1.402699351E0,4.547891617E-1,-1.762346178E-1
1.094793895E1,-1.426217675E0,5.839871764E-1,-3.013092875E-1
1.095793895E1,-1.510058880E0,6.091853380E-1,-3.523165286E-1
1.096793895E1,-1.598328948E0,7.026477456E-1,-3.735440969E-1
1.097793895E1,-1.703092337E0,8.513934612E-1,-4.214970171E-1
1.098793895E1,-1.819920301E0,9.867000580E-1,-5.267185569E-1
1.099793895E1,-1.877647042E0,1.087034702E0,-6.139195561E-1
1.100793895E1,-1.995391369E0,1.083064079E0,-5.624541640E-1
1.101793895E1,-2.212706566E0,9.746354818E-1,-4.686863720E-1
1.102793895E1,-2.544864655E0,9.283624291E-1,-2.999348342E-1
1.103793895E1,-2.814714432E0,1.027475357E0,-1.438587606E-1
1.104793895E1,-3.013550997E0,1.144914150E0,-5.619960278E-2
1.105793895E1,-3.076622725E0,1.291216373E0,-4.062253982E-2
1.106793895E1,-2.914438009E0,1.514793038E0,-6.872233935E-3
1.107793895E1,-2.626262426E0,1.663844228E0,-9.010262787E-3
1.108793895E1,-2.369393587E0,1.642311215E0,-1.557706390E-2
1.109793895E1,-2.213775635E0,1.544725537E0,-2.855795063E-2
1.110793895E1,-2.093893290E0,1.361313224E0,-9.453139454E-2
1.111793895E1,-2.195755005E0,1.347416043E0,-2.128865421E-1
1.112793895E1,-2.457663536E0,1.480431914E0,-4.179845452E-1
1.113793895E1,-2.748130083E0,1.428050280E0,-5.984952450E-1
1.114793895E1,-2.862819910E0,1.348790407E0,-6.927211881E-1
1.115793895E1,-2.888323545E0,1.320232511E0,-9.149234295E-1
1.116793895E1,-2.747977257E0,1.049619198E0,-9.007207751E-1
1.117793895E1,-2.603660345E0,6.695083380E-1,-6.039929986E-1
1.118793895E1,-2.612365246E0,3.631593883E-1,-2.015855312E-1
1.119793895E1,-2.662608862E0,5.558873713E-2,3.304781020E-1
1.120793895E1,-2.684752703E0,-2.527455091E-1,8.196284175E-1
1.121793895E1,-2.658027411E0,-4.248567820E-1,1.170112371E0
1.122793895E1,-2.671313763E0,-5.652030706E-1,1.256091714E0
1.123793895E1,-2.768594027E0,-5.380195379E-1,1.241736293E0
1.124793895E1,-2.832123995E0,-3.373503387E-1,1.200197458E0
1.125793895E1,-2.604729414E0,-2.579378486E-1,1.040303469E0
1.126793895E1,-2.025781870E0,-4.581489484E-4,6.488916278E-1
1.127793895E1,-1.473865151E0,3.740022480E-1,3.263547719E-1
1.128793895E1,-8.910996914E-1,4.920519590E-1,-1.036943719E-1
1.129793895E1,-1.139263660E-1,5.725334287E-1,-6.991352439E-1
1.130793895E1,1.117883444E0,1.832595766E-1,-1.202641010E0
1.131793895E1,1.973552942E0,-1.562287807E-1,-1.270599723E0
1.132793895E1,2.488054037E0,-1.411098689E-1,-9.845620394E-1
1.133793895E1,2.493704557E0,3.588833287E-2,-6.160575747E-1
1.134793895E1,2.311666727E0,-1.513418704E-1,-3.775147200E-1
1.135793895E1,2.116495371E0,-2.538145185E-1,-2.067778856E-1
1.136793895E1,1.876730800E0,-1.006400511E-1,-7.788531948E-3
1.137793895E1,1.571145415E0,1.229366288E-1,1.684460938E-1
1.138793895E1,1.310458660E0,1.695151031E-1,3.107776940E-1
1.139793895E1,1.133765936E0,-5.345070735E-2,3.868304193E-1
1.140793895E1,1.022893906E0,-3.576616049E-1,4.158465266E-1
1.141793895E1,8.410087228E-1,-7.913759351E-1,4.456261992E-1
1.142793895E1,5.542075038E-1,-9.546296597E-1,5.600107312E-1
1.143793895E1,1.753183305E-1,-9.865473509E-1,7.057020664E-1
1.144793895E1,-2.241875380E-1,-9.314168096E-1,7.799221873E-1
1.145793895E1,-5.148066878E-1,-8.611672521E-1,7.942775488E-1
1.146793895E1,-8.442157507E-1,-6.044511795E-1,7.144069076E-1
1.147793895E1,-1.068403363E0,-4.355469346E-1,5.593998432E-1
1.148793895E1,-1.131475091E0,-4.039346576E-1,4.657847583E-1
1.149793895E1,-1.109636664E0,-4.928155243E-1,4.053090811E-1
1.150793895E1,-1.039692640E0,-6.007859707E-1,3.423899710E-1
1.151793895E1,-9.830349088E-1,-6.279694438E-1,2.664899528E-1
1.152793895E1,-9.457721114E-1,-5.485569835E-1,1.802052408E-1
1.153793895E1,-9.083566070E-1,-3.859141171E-1,9.666942805E-2
1.154793895E1,-8.614727259E-1,2.626720630E-2,-7.086037099E-2
1.155793895E1,-8.877398968E-1,5.094616413E-1,-3.648392558E-1
1.156793895E1,-9.016370773E-1,8.672759533E-1,-5.887213945E-1
1.157793895E1,-8.915578127E-1,9.546296597E-1,-6.188064814E-1
1.158793895E1,-8.469646573E-1,8.147414923E-1,-5.146539807E-1
1.159793895E1,-7.551821470E-1,6.357579827E-1,-3.216205537E-1
1.160793895E1,-6.716463566E-1,6.430884004E-1,-1.606575549E-1
1.161793895E1,-6.346889734E-1,8.481863737E-1,-1.583668143E-1
1.162793895E1,-5.726861954E-1,9.998337030E-1,-4.115704596E-1
1.163793895E1,-3.909537494E-1,1.083064079E0,-8.790351152E-1
1.164793895E1,2.703078650E-2,1.039081812E0,-9.556986690E-1
1.165793895E1,7.354817390E-1,9.366091490E-1,-7.583891749E-1
1.166793895E1,1.392925501E0,9.074403048E-1,-3.605632186E-1
1.167793895E1,1.720654726E0,1.146899462E0,-2.292271852E-1
1.168793895E1,1.850463510E0,1.630857468E0,-1.255328059E-1
1.169793895E1,1.669342041E0,1.692707539E0,-1.492038369E-1
1.170793895E1,1.320537925E0,1.705688477E0,-9.728029370E-2
1.171793895E1,9.556986690E-1,1.058476806E0,3.420845419E-2
1.172793895E1,4.980078936E-1,2.382374369E-2,2.148718536E-1
1.173793895E1,4.214970022E-2,-8.530732989E-1,2.428189367E-1
1.174793895E1,-3.594942093E-1,-1.297172308E0,1.690569520E-1
1.175793895E1,-6.044511795E-1,-1.242041707E0,1.136209369E-1
1.176793895E1,-7.866417170E-1,-8.503243923E-1,8.552113175E-2
1.177793895E1,-7.903069258E-1,-2.933680415E-1,1.160643995E-2
1.178793895E1,-6.565274000E-1,3.817907721E-2,-4.184427112E-2
1.179793895E1,-4.839579761E-1,2.055561543E-1,-3.023782931E-2
1.180793895E1,-3.804163337E-1,1.736384481E-1,-4.764748737E-2
1.181793895E1,-3.307835162E-1,1.142318025E-1,-6.887505949E-2
1.182793895E1,-4.054618180E-1,2.057088763E-1,-1.353066564E-1
1.183793895E1,-5.196936131E-1,2.115120888E-1,-7.773260027E-2
1.184793895E1,-5.871942043E-1,1.111774743E-1,-1.221730467E-2
1.185793895E1,-5.661193728E-1,-2.229658142E-2,-1.420261711E-2
1.186793895E1,-4.399756789E-1,3.817907767E-3,-3.130684420E-2
1.187793895E1,-2.362521291E-1,1.250746548E-1,-5.787948146E-2
1.188793895E1,-2.015855350E-2,1.215621829E-1,-8.643743396E-2
1.189793895E1,9.162978828E-2,2.292271852E-1,-4.810563847E-2
1.190793895E1,1.010981947E-1,3.649919853E-2,1.053742506E-2
1.191793895E1,7.192938030E-2,-2.067778856E-1,5.451972410E-2
1.192793895E1,7.131851465E-2,-1.542434692E-1,7.681630552E-2
1.193793895E1,1.233947799E-1,-8.872817457E-2,9.529497474E-2
1.194793895E1,1.849394590E-1,-1.004873365E-1,1.159116775E-1
1.195793895E1,2.295326144E-1,-1.392772794E-1,1.253800988E-1
1.196793895E1,2.490803003E-1,-1.281289905E-1,1.363756657E-1
1.197793895E1,2.434297949E-1,-1.637118906E-1,1.496619880E-1
1.198793895E1,2.616030276E-1,-1.440114826E-1,1.571450830E-1
1.199793895E1,2.732094824E-1,-9.101892263E-2,1.377501190E-1
1.200793895E1,2.419026345E-1,-2.626720630E-2,9.911288321E-2
1.201793895E1,1.656972021E-1,-3.298672289E-2,6.383541971E-2
1.202793895E1,8.109235764E-2,-4.108068720E-2,4.199698567E-2
1.203793895E1,-2.382374369E-2,1.786780916E-2,1.679879427E-2
1.204793895E1,-1.182024255E-1,1.041525230E-1,-1.557706390E-2
1.205793895E1,-1.734857261E-1,1.145372316E-1,-2.886338346E-2
1.206793895E1,-1.722639948E-1,1.134682223E-1,-4.718934000E-2
1.207793895E1,-1.734857261E-1,1.065959856E-1,-1.301143020E-1
1.208793895E1,-2.035708427E-1,1.543961912E-1,-1.994474977E-1
1.209793895E1,-2.406809032E-1,1.835650057E-1,-2.174680233E-1
1.210793895E1,-2.796235681E-1,1.548543423E-1,-2.041817009E-1
1.211793895E1,-3.019201458E-1,1.679879427E-1,-1.844813079E-1
1.212793895E1,-3.020728528E-1,1.837177277E-1,-1.576032341E-1
1.213793895E1,-2.762638032E-1,1.815796942E-1,-1.576032341E-1
1.214793895E1,-2.298380435E-1,2.044871449E-1,-2.028072625E-1
1.215793895E1,-1.951714456E-1,2.835941911E-1,-2.487748712E-1
1.216793895E1,-1.539380401E-1,4.375322461E-1,-2.932153046E-1
1.217793895E1,-1.348485053E-1,4.893030524E-1,-3.283400834E-1
1.218793895E1,-1.295034289E-1,4.453207552E-1,-3.396410644E-1
1.219793895E1,-1.081231460E-1,4.062253833E-1,-3.094032407E-1
1.220793895E1,-7.757988572E-2,4.259257913E-1,-2.629774809E-1
1.221793895E1,-5.192354694E-2,5.557346344E-1,-1.792889535E-1
1.222793895E1,-4.627304152E-2,7.131851912E-1,-6.490442902E-2
1.223793895E1,-3.145955876E-2,8.307767510E-1,-1.420261711E-2
1.224793895E1,5.192354694E-2,6.050620079E-1,-4.734205827E-2
1.225793895E1,1.956295967E-1,1.495092660E-1,-6.215553731E-2
1.226793895E1,1.989893466E-1,6.856962293E-2,-4.917465150E-2
1.227793895E1,1.388191283E-1,1.794416606E-1,-3.756821156E-2
1.228793895E1,9.605856240E-2,2.744311988E-1,-2.962696366E-2
1.229793895E1,4.291328415E-2,4.207334518E-1,1.404990070E-2
1.230793895E1,-3.497203439E-2,4.786129296E-1,3.145955876E-2
1.231793895E1,-9.514226019E-2,4.780020416E-1,3.527746722E-2
1.232793895E1,-1.478293836E-1,4.627304375E-1,3.283400834E-2
1.233793895E1,-1.747074574E-1,4.465425014E-1,2.794708498E-2
1.234793895E1,-1.828014255E-1,4.085161388E-1,-3.970623948E-3
1.235793895E1,-1.673770845E-1,3.462078869E-1,-3.207042580E-3
1.236793895E1,-1.450804919E-1,3.233004212E-1,-3.145955876E-2
1.237793895E1,-1.340849251E-1,3.211624026E-1,-6.933320314E-2
1.238793895E1,-1.235474944E-1,2.623666227E-1,-5.864306539E-2
1.239793895E1,-1.235474944E-1,1.455386430E-1,9.162978269E-3
1.240793895E1,-1.003346145E-1,4.169155285E-2,8.552113548E-3
1.241793895E1,-5.131268129E-2,-5.222897977E-2,-1.832595794E-3
1.242793895E1,-2.000583708E-2,-1.119410545E-1,-3.359758761E-3
1.243793895E1,-5.192354787E-3,-1.191187203E-1,-1.069014193E-3
1.244793895E1,8.857546374E-3,-1.681406647E-1,2.916881628E-2
1.245793895E1,3.237585723E-2,-1.837177277E-1,1.435533352E-2
1.246793895E1,3.940080851E-2,-1.615738571E-1,1.450804994E-2
1.247793895E1,3.176499158E-2,-1.371392459E-1,1.710422710E-2
1.248793895E1,2.275473066E-2,-9.926560521E-2,1.359175146E-2
1.249793895E1,3.054326214E-2,-2.672535367E-2,5.497787148E-3
1.250793895E1,4.703662544E-2,3.588833287E-2,9.162978968E-4
1.251793895E1,5.161811411E-2,6.902777404E-2,2.290744567E-3
1.252793895E1,2.458732575E-2,6.994406879E-2,9.621127509E-3
1.253793895E1,-1.863138936E-2,9.269879758E-2,1.359175146E-2
1.254793895E1,-5.467243865E-2,1.340849251E-1,1.634064503E-2
1.255793895E1,-5.574145541E-2,1.230893433E-1,1.007927675E-2
1.256793895E1,-6.872233935E-3,2.550362423E-2,-1.527163084E-3
1.257793895E1,4.123340547E-2,-1.038470939E-1,-1.206458826E-2
1.258793895E1,5.421429127E-2,-1.649336219E-1,-2.214386500E-2
1.259793895E1,5.238169432E-2,-2.176207453E-1,-2.244929783E-2
1.260793895E1,5.192354694E-2,-2.900082767E-1,-1.908953860E-2
1.261793895E1,5.192354694E-2,-2.900082767E-1,-1.908953860E-2
1.262793895E1,7.941248268E-2,-4.466952085E-1,3.207042580E-3
1.263793895E1,9.239336848E-2,-5.140430927E-1,1.740965992E-2
1.264793895E1,8.231408894E-2,-4.897612035E-1,2.122756653E-2
1.265793895E1,4.016438872E-2,-3.368921876E-1,1.237002108E-2
1.266793895E1,-4.581489135E-3,-1.840231568E-1,-1.374446787E-3
1.267793895E1,-2.748893574E-3,-1.226311997E-1,-1.328631863E-2
1.268793895E1,2.718350291E-2,-1.664607823E-1,-1.359175146E-2
1.269793895E1,7.819075137E-2,-2.247984111E-1,-1.145372353E-2
1.270793895E1,9.315694869E-2,-2.490803003E-1,-7.941247895E-3
1.271793895E1,8.170322329E-2,-2.113593817E-1,-4.123340361E-3
1.272793895E1,5.421429127E-2,-1.724167168E-1,-5.039638374E-3
1.273793895E1,3.084869497E-2,-1.566869318E-1,-1.374446787E-3
1.274793895E1,4.062253982E-2,-1.540907621E-1,-2.596177394E-3
1.275793895E1,5.054909736E-2,-1.711949855E-1,-7.483099122E-3
1.276793895E1,5.039638281E-2,-1.478293836E-1,-1.832595654E-2
1.277793895E1,3.894266114E-2,-1.209513173E-1,-2.550362423E-2
1.278793895E1,2.153299935E-2,-1.015563458E-1,-2.290744707E-2
1.279793895E1,1.404990070E-2,-9.300423414E-2,-1.924225502E-2
1.280793895E1,1.863138936E-2,-6.108652428E-2,-1.664607786E-2
1.281793895E1,1.847867295E-2,-3.665191308E-2,-1.404990070E-2
1.282793895E1,3.665191587E-3,-3.069597855E-2,-1.832595794E-3
1.283793895E1,-1.588249579E-2,-3.833179548E-2,7.941247895E-3
1.284793895E1,-1.221730467E-2,-3.466660157E-2,1.038470957E-2
1.285793895E1,9.926560335E-3,-4.780020565E-2,5.345070735E-3
1.286793895E1,1.618792862E-2,-5.879577994E-2,2.901609987E-3
1.287793895E1,1.496619824E-2,-6.001751125E-2,-7.635815418E-4
1.288793895E1,1.099557430E-2,-3.313944116E-2,-1.832595794E-3
1.289793895E1,2.183843218E-2,-4.734205548E-3,7.635815418E-4
1.290793895E1,2.199114859E-2,-2.076941915E-2,-6.108652451E-4
1.291793895E1,4.886921961E-3,-2.825251780E-2,1.832595794E-3
1.292793895E1,-1.374446787E-2,-1.252273750E-2,7.635815418E-4
1.293793895E1,-1.374446787E-2,-1.374446787E-2,-1.679879380E-3
1.294793895E1,-3.817907767E-3,-1.847867295E-2,-5.345070735E-3
1.295793895E1,6.261368748E-3,-4.046982154E-2,-4.276056774E-3
1.296793895E1,9.621127509E-3,-2.199114859E-2,-5.497787148E-3
1.297793895E1,3.207042580E-3,1.343903504E-2,-6.414085161E-3
1.298793895E1,6.108652451E-4,2.321287990E-2,-3.054326226E-4
1.299793895E1,-1.527163084E-3,-2.596177394E-3,1.985311974E-3
1.300793895E1,-6.566801574E-3,-2.596177394E-3,-1.679879380E-3
1.301793895E1,-3.970623948E-3,-2.596177394E-3,-9.010262787E-3
1.302793895E1,-2.748893574E-3,-6.261368748E-3,-1.023199316E-2
1.303793895E1,-2.748893574E-3,-9.926560335E-3,-1.023199316E-2
1.304793895E1,-6.414085161E-3,-1.359175146E-2,-2.901609987E-3
1.305793895E1,-9.010262787E-3,-3.817907767E-3,-2.901609987E-3
1.306793895E1,-1.267545391E-2,-5.192354787E-3,1.985311974E-3
1.307793895E1,-1.740965992E-2,-7.788531948E-3,5.650503561E-3
1.308793895E1,-1.389718428E-2,-2.748893574E-3,6.872233935E-3
1.309793895E1,-5.345070735E-3,7.177666761E-3,5.803219974E-3
1.310793895E1,6.872233935E-3,1.099557430E-2,5.803219974E-3
1.311793895E1,9.315694682E-3,1.221730467E-2,2.138028387E-3
1.312793895E1,1.420261711E-2,1.099557430E-2,9.162978968E-4
1.313793895E1,2.290744707E-2,1.527163113E-4,-1.679879380E-3
1.314793895E1,2.183843218E-2,-1.710422710E-2,-1.832595794E-3
1.315793895E1,2.290744567E-3,-1.970040426E-2,-4.581489484E-4
1.316793895E1,-7.635815535E-3,-1.130100712E-2,1.985311974E-3
1.317793895E1,-9.010262787E-3,5.955935922E-3,2.138028387E-3
1.318793895E1,-4.123340361E-3,3.512475174E-3,5.650503561E-3
1.319793895E1,-2.748893574E-3,-6.261368748E-3,5.650503561E-3
1.320793895E1,-1.527163084E-3,-2.596177394E-3,4.428773187E-3
1.321793895E1,4.581489135E-3,-3.817907767E-3,-1.679879380E-3
1.322793895E1,4.734205548E-3,-1.481348183E-2,-5.345070735E-3
1.323793895E1,-1.527163113E-4,-1.603521220E-2,-5.345070735E-3
1.324793895E1,-1.527163084E-3,-6.261368748E-3,-1.679879380E-3
1.325793895E1,7.024950348E-3,-2.443460980E-3,-4.581489484E-4
1.326793895E1,1.084285788E-2,-1.099557430E-2,1.985311974E-3
1.327793895E1,1.450804994E-2,-1.588249579E-2,4.428773187E-3
1.328793895E1,1.069014193E-3,-2.458732575E-2,4.276056774E-3
1.329793895E1,-4.886921961E-3,-3.084869497E-2,3.054326167E-3
1.330793895E1,-9.926560335E-3,-3.207042441E-2,1.832595794E-3
1.331793895E1,-2.596177394E-3,-2.214386500E-2,-4.581489484E-4
1.332793895E1,2.138028387E-3,-1.237002108E-2,-6.566801574E-3
1.333793895E1,7.024950348E-3,-9.773843922E-3,-6.566801574E-3
1.334793895E1,-1.374446787E-3,-1.603521220E-2,-2.901609987E-3
1.335793895E1,-1.634064503E-2,-2.748893574E-3,-2.901609987E-3
1.336793895E1,-2.244929783E-2,9.162978968E-4,-2.748893574E-3
1.337793895E1,-1.649336144E-2,1.557706390E-2,-3.970623948E-3
1.338793895E1,-7.941247895E-3,1.450804994E-2,-3.054326226E-4
1.339793895E1,-6.566801574E-3,2.290744567E-3,3.207042580E-3
1.340793895E1,-2.244929783E-2,-9.010262787E-3,1.053742506E-2
1.341793895E1,-2.718350291E-2,-1.527163107E-2,1.053742506E-2
1.342793895E1,-1.374446787E-2,-1.985312067E-2,7.635815418E-4
1.343793895E1,2.443460980E-3,-3.436116874E-2,-3.054326167E-3
1.344793895E1,7.483099122E-3,-4.413501546E-2,-4.276056774E-3
1.345793895E1,1.359175146E-2,-4.780020565E-2,1.679879380E-3
1.346793895E1,-1.710422710E-2,-4.566217586E-2,7.941247895E-3
1.347793895E1,-3.802636266E-2,-4.230241850E-2,1.404990070E-2
1.348793895E1,-4.673119262E-2,-3.130684420E-2,1.053742506E-2
1.349793895E1,-3.588833287E-2,-1.160643995E-2,-4.581489484E-4
1.350793895E1,-2.855795063E-2,7.635815418E-4,-1.527163084E-3
1.351793895E1,-3.726277873E-2,-1.679879380E-3,-5.192354787E-3
1.352793895E1,-3.970624134E-2,9.315694682E-3,-6.414085161E-3
1.353793895E1,-3.115412779E-2,1.069014147E-2,-1.618792862E-2
1.354793895E1,-1.053742506E-2,2.687807009E-2,-2.107485011E-2
1.355793895E1,6.108652451E-4,1.466076635E-2,-1.007927675E-2
1.356793895E1,3.359758761E-3,-1.237002108E-2,-2.901609987E-3
1.357793895E1,3.436116874E-2,-4.016438872E-2,4.276056774E-3
1.358793895E1,7.269296050E-2,-5.696318299E-2,6.414085161E-3
1.359793895E1,1.010981947E-1,-7.131851465E-2,8.857546374E-3
1.360793895E1,1.172861308E-1,-8.720101416E-2,8.704829961E-3
1.361793895E1,1.145372316E-1,-7.238753140E-2,2.596177394E-3
1.362793895E1,8.933904022E-2,-1.130100712E-2,-5.497787148E-3
1.363793895E1,3.023782931E-2,1.374446787E-2,1.985311974E-3
1.368585894E1,1.201877370E-1,2.037235647E-1,-3.130684420E-2
1.369585894E1,1.166752651E-1,1.852448881E-1,-3.252857551E-2
1.370585894E1,1.056796908E-1,1.777617931E-1,-2.412917651E-2
1.371585894E1,1.033889428E-1,1.727221459E-1,-2.046398632E-2
1.372585894E1,9.728029370E-2,1.566869318E-1,-1.679879427E-2
1.373585894E1,8.903361112E-2,1.284344196E-1,-1.450804994E-2
1.374585894E1,8.292495459E-2,1.221730486E-1,-8.399397135E-3
1.375585894E1,7.941248268E-2,1.136209369E-1,-2.443460980E-3
1.376585894E1,7.223481685E-2,9.132435173E-2,4.886921961E-3
1.377585894E1,6.887505949E-2,7.040221989E-2,1.450804994E-2
1.378585894E1,6.902777404E-2,5.329799280E-2,1.679879427E-2
1.379585894E1,7.040221989E-2,4.474587739E-2,1.191187184E-2
1.380585894E1,5.833763257E-2,2.367102914E-2,1.542434748E-2
1.381585894E1,4.978551716E-2,1.007927675E-2,1.908953860E-2
1.382585894E1,4.978551716E-2,1.267545391E-2,1.298088674E-2
1.383585894E1,4.978551716E-2,1.023199316E-2,9.315694682E-3
1.384585894E1,4.734205827E-2,1.023199316E-2,5.650503561E-3
1.385585894E1,4.856378585E-2,1.389718428E-2,8.093964309E-3
1.386585894E1,5.574145541E-2,2.626720630E-2,5.803219974E-3
1.387585894E1,5.451972410E-2,3.359758854E-2,3.359758761E-3
1.388585894E1,5.192354694E-2,3.970624134E-2,-3.054326226E-4
1.389585894E1,5.192354694E-2,4.948008433E-2,-1.527163084E-3
1.390585894E1,5.192354694E-2,5.070181563E-2,-3.817907767E-3
1.391585894E1,4.566217586E-2,5.314527452E-2,-5.039638374E-3
1.392585894E1,4.550946131E-2,6.536258012E-2,-6.261368748E-3
1.393585894E1,5.528330430E-2,7.528914511E-2,-8.704829961E-3
1.394585894E1,7.116580009E-2,8.536841720E-2,-1.221730467E-2
1.395585894E1,7.009678334E-2,6.688974798E-2,-1.114829071E-2
1.396585894E1,5.925392732E-2,4.718934000E-2,-1.130100712E-2
1.397585894E1,5.085453019E-2,2.626720630E-2,-1.130100712E-2
1.398585894E1,6.093380973E-2,1.038470957E-2,-1.511891466E-2
1.399585894E1,8.048149943E-2,8.246680722E-3,-1.756237634E-2
1.400585894E1,9.666942805E-2,-5.039638374E-3,-1.893682219E-2
1.401585894E1,9.208793938E-2,-2.962696366E-2,-1.298088674E-2
1.402585894E1,9.330966324E-2,-3.329215571E-2,-1.298088674E-2
1.403585894E1,1.043052375E-1,-3.451388702E-2,-1.175915636E-2
1.404585894E1,1.252273768E-1,-3.176499158E-2,-1.175915636E-2
1.405585894E1,1.327104717E-1,-4.153883830E-2,-8.246680722E-3
1.406585894E1,1.437060535E-1,-4.260785133E-2,-4.581489135E-3
1.407585894E1,1.522581577E-1,-3.390302137E-2,-7.024950348E-3
1.408585894E1,1.681406647E-1,-2.764165215E-2,-2.138028387E-3
1.409585894E1,1.780672222E-1,-4.108068720E-2,7.635815535E-3
1.410585894E1,1.893682331E-1,-6.429356337E-2,2.092213556E-2
1.411585894E1,2.008219510E-1,-9.132435173E-2,3.543018550E-2
1.412585894E1,2.119702399E-1,-1.096503139E-1,4.260785133E-2
1.413585894E1,2.357939780E-1,-1.437060535E-1,4.718934000E-2
1.414585894E1,2.704605758E-1,-1.763873398E-1,5.436700583E-2
1.415585894E1,3.138320148E-1,-2.078468949E-1,5.772676691E-2
1.416585894E1,3.568980098E-1,-2.257147133E-1,6.001751125E-2
1.417585894E1,4.077525437E-1,-2.742784917E-1,6.093380973E-2
1.418585894E1,4.499022663E-1,-3.129157126E-1,5.696318299E-2
1.419585894E1,4.920519590E-1,-3.455969989E-1,5.299255997E-2
1.420585894E1,5.267185569E-1,-3.758348525E-1,5.650503561E-2
1.421585894E1,5.540547967E-1,-4.050036669E-1,6.001751125E-2
1.422585894E1,6.154467463E-1,-4.007275999E-1,6.597344577E-2
1.423585894E1,6.948592067E-1,-3.593414724E-1,6.734789163E-2
1.424585894E1,7.643451095E-1,-3.156646192E-1,5.879577994E-2
1.425585894E1,8.116871715E-1,-2.696970105E-1,4.795292020E-2
1.426585894E1,8.666650653E-1,-2.469422817E-1,3.588833287E-2
1.427585894E1,9.172141552E-1,-2.623666227E-1,4.062253982E-2
1.428585894E1,9.547823668E-1,-3.307835162E-1,7.559457421E-2
1.429585894E1,9.818131924E-1,-4.398229718E-1,1.041525230E-1
1.430585894E1,9.961684942E-1,-5.120577812E-1,1.258382350E-1
1.431585894E1,1.010676503E0,-6.137668490E-1,1.472185254E-1
1.432585894E1,1.009912968E0,-7.609853745E-1,1.524108797E-1
1.433585894E1,1.001208186E0,-8.677340746E-1,1.556179225E-1
1.434585894E1,9.749409556E-1,-9.317222238E-1,1.418734491E-1
1.435585894E1,9.358455539E-1,-9.526443481E-1,8.689557761E-2
1.436585894E1,9.611964822E-1,-9.236282706E-1,-9.468411095E-3
1.437585894E1,1.075580955E0,-9.488264322E-1,-1.087340117E-1
1.438585894E1,1.202641010E0,-1.000902653E0,-1.666134894E-1
1.439585894E1,1.370018005E0,-1.046717644E0,-2.037235647E-1
1.440585894E1,1.566869378E0,-1.081231475E0,-2.115120888E-1
1.441585894E1,1.804801345E0,-1.062752843E0,-2.118175179E-1
1.442585894E1,2.058463097E0,-1.015868902E0,-1.986839175E-1
1.443585894E1,2.180025339E0,-1.011898279E0,-2.220495194E-1
1.444585894E1,2.254703522E0,-9.958630800E-1,-3.086396754E-1
1.445585894E1,2.266004562E0,-1.035569310E0,-4.273002446E-1
1.446585894E1,2.262339354E0,-1.040150762E0,-4.957171381E-1
1.447585894E1,2.240500927E0,-1.066112518E0,-4.995350540E-1
1.448585894E1,2.202474594E0,-1.059393048E0,-4.602869749E-1
1.449585894E1,2.230421782E0,-1.025031924E0,-3.967569768E-1
1.450585894E1,2.343889952E0,-9.602801800E-1,-3.477350473E-1
1.451585894E1,2.394438982E0,-8.704829812E-1,-2.997821271E-1
1.452585894E1,2.367713690E0,-7.816020846E-1,-2.539672256E-1
1.453585894E1,2.332283497E0,-6.673702598E-1,-1.350012124E-1
1.454585894E1,2.349693060E0,-5.707008839E-1,-7.101308554E-2
1.455585894E1,2.368019104E0,-5.752823353E-1,-9.056077152E-2
1.456585894E1,2.364048481E0,-6.572909951E-1,-1.154535338E-1
1.457585894E1,2.352442026E0,-8.374962807E-1,-1.554652005E-1
1.458585894E1,2.406656265E0,-9.619600177E-1,-1.574505121E-1
1.459585894E1,2.468048334E0,-1.082758665E0,-1.288925707E-1
1.460585894E1,2.456747293E0,-1.276708364E0,-1.189660057E-1
1.461585894E1,2.404365540E0,-1.425454021E0,-1.574505121E-1
1.462585894E1,2.307085276E0,-1.413694859E0,-2.341141105E-1
1.463585894E1,2.097405910E0,-1.211956620E0,-3.352122903E-1
1.464585894E1,1.772120118E0,-1.225090265E0,-3.872885704E-1
1.465585894E1,1.652848601E0,-1.322828650E0,-4.668537676E-1
1.466585894E1,1.544878244E0,-1.218370676E0,-5.174028873E-1
1.467585894E1,1.387733102E0,-1.120632291E0,-5.325217843E-1
1.468585894E1,1.199433923E0,-9.584475756E-1,-5.398521423E-1
1.469585894E1,1.091158032E0,-8.260425329E-1,-5.291619897E-1
1.470585894E1,9.453139901E-1,-7.447974682E-1,-6.786713004E-1
1.471585894E1,7.287622094E-1,-6.116288304E-1,-1.007164121E0
1.472585894E1,4.883867502E-1,-5.383250117E-1,-1.224937558E0
1.473585894E1,3.472768962E-1,-6.635523438E-1,-1.251052022E0
1.474585894E1,2.464841306E-1,-8.626944423E-1,-1.133460522E0
1.475585894E1,3.359758854E-2,-1.151175499E0,-8.440630436E-1
1.476585894E1,-1.806633919E-1,-1.523039818E0,-5.343543887E-1
1.477585894E1,-3.764457107E-1,-1.695303798E0,-5.777258277E-1
1.478585894E1,-3.484986126E-1,-1.674687028E0,-7.156286240E-1
1.479585894E1,-2.079996169E-1,-1.388038516E0,-8.217664957E-1
1.480585894E1,-2.745839357E-1,-9.153815508E-1,-8.715519905E-1
1.481585894E1,-2.881756723E-1,-5.826127529E-1,-9.796751142E-1
1.482585894E1,-2.631302178E-1,-4.028656185E-1,-1.072832108E0
1.483585894E1,-1.091921628E-1,-3.437644243E-1,-1.260673165E0
1.484585894E1,1.039998084E-1,-4.202753007E-1,-1.382387996E0
1.485585894E1,1.595885456E-1,-4.601342380E-1,-1.383915186E0
1.486585894E1,-3.054326167E-3,-3.906483352E-1,-1.212262034E0
1.487585894E1,-1.188132912E-1,-3.527746797E-1,-1.177748203E0
1.488585894E1,-1.163698286E-1,-2.414444834E-1,-1.139263630E0
1.489585894E1,1.353066564E-1,-1.209513173E-1,-1.135445833E0
1.490585894E1,4.295909703E-1,-8.353582025E-2,-1.101542711E0
1.491585894E1,5.703954101E-1,-1.559233516E-1,-1.049619198E0
1.492585894E1,7.194465399E-1,-3.200933933E-1,-9.885326624E-1
1.493585894E1,8.394815922E-1,-5.216789246E-1,-1.082605958E0
1.494585894E1,9.694431424E-1,-6.212499738E-1,-1.231046200E0
1.495585894E1,1.211956620E0,-4.598288238E-1,-1.331991673E0
1.496585894E1,1.397048831E0,-1.067487001E-1,-1.409724236E0
1.497585894E1,1.484555244E0,1.986839175E-1,-1.479057431E0
1.498585894E1,1.338405728E0,3.164281845E-1,-1.546558142E0
1.499585894E1,1.098793864E0,2.044871449E-1,-1.753030539E0
1.500585894E1,9.940304756E-1,-1.023199260E-1,-1.886351824E0
1.501585894E1,9.300423265E-1,-5.418374538E-1,-1.925294518E0
1.502585894E1,9.552405477E-1,-8.278751373E-1,-1.802357912E0
1.503585894E1,1.119716048E0,-6.973026991E-1,-1.576032281E0
1.504585894E1,1.338558435E0,-3.839288056E-1,-1.712713480E0
1.505585894E1,1.719280243E0,-6.872233748E-2,-1.873981833E0
1.506585894E1,2.089617252E0,-1.276708394E-1,-1.767538548E0
1.507585894E1,2.386039734E0,-5.019785166E-1,-1.563662291E0
1.508585894E1,2.411543369E0,-9.236282706E-1,-1.306029916E0
1.509585894E1,2.101529121E0,-1.297630548E0,-1.016937971E0
1.510585894E1,1.464702129E0,-2.202474594E0,-5.079344511E-1
1.511585894E1,1.316720009E0,-3.026379108E0,-1.311833113E-1
1.512585894E1,2.552958488E0,-2.727207899E0,-9.935722947E-1
1.513585894E1,3.540575027E0,-2.182468891E0,-2.387719631E0
1.514585894E1,4.189772129E0,-2.114051819E0,-3.687488079E0
1.515585894E1,4.815145493E0,-2.407419920E0,-4.149149418E0
1.516585894E1,5.340489388E0,-3.375641346E0,-3.598454475E0
1.517585894E1,5.033224106E0,-3.005304337E0,-1.591456652E0
1.518585894E1,3.639840603E0,-3.134044170E0,2.463314086E-1
1.519585894E1,1.433395267E0,-3.289051294E0,1.229519010E0
1.520585894E1,-3.836233616E-1,-2.512336016E0,1.245401502E0
1.521585894E1,-1.373377800E0,-1.174999356E0,6.255260110E-1
1.522585894E1,-1.441183805E0,-1.687515229E-1,1.098030284E-1
1.523585894E1,-7.791585922E-1,1.449277848E-1,-9.101892263E-2
1.524585894E1,1.735010028E0,-2.536617815E-1,3.199406862E-1
1.525585894E1,3.755294085E0,-5.041165352E-1,6.814202070E-1
1.526585894E1,4.314693928E0,-7.066183686E-1,4.938845634E-1
1.527585894E1,3.902359962E0,-4.526511431E-1,-5.797111392E-1
1.528585894E1,3.154660940E0,2.428189367E-1,-2.116495371E0
1.529585894E1,2.704147816E0,1.192256212E0,-3.094643354E0
1.530585894E1,2.467132092E0,1.311985850E0,-3.058144093E0
1.531585894E1,2.464230299E0,1.259145975E0,-2.831360340E0
1.532585894E1,2.422080755E0,1.196990490E0,-2.526386023E0
1.533585894E1,2.285246849E0,1.272737741E0,-2.102139950E0
1.534585894E1,2.274404049E0,1.164614558E0,-1.864666104E0
1.535585894E1,2.205223560E0,1.084285855E0,-1.888184428E0
1.536585894E1,2.099391222E0,1.224173903E0,-1.893376827E0
1.537585894E1,1.967902422E0,1.116967082E0,-1.852143407E0
1.538585894E1,1.736078978E0,8.655960560E-1,-1.865277052E0
1.539585894E1,1.390176535E0,3.946189582E-1,-1.857488513E0
1.540585894E1,1.080467939E0,8.536841720E-2,-1.748754501E0
1.541585894E1,7.522805333E-1,-3.133738637E-1,-1.457371712E0
1.542585894E1,4.502076805E-1,-5.091561675E-1,-1.041525245E0
1.543585894E1,1.226311997E-1,-7.312057018E-1,-5.563455224E-1
1.544585894E1,-1.545489132E-1,-9.815077186E-1,-4.240931869E-1
1.545585894E1,-4.066835344E-1,-1.157742381E0,-3.061962128E-1
1.546585894E1,-5.213735104E-1,-1.213483810E0,-2.183843255E-1
1.547585894E1,-5.036584139E-1,-1.154840708E0,-1.534798890E-1
1.548585894E1,-4.046982229E-1,-9.882272482E-1,-1.539380401E-1
1.549585894E1,-2.396118939E-1,-7.092145681E-1,-1.795943826E-1
1.550585894E1,-1.120937690E-1,-4.671591818E-1,-2.225076705E-1
1.551585894E1,-3.039054573E-2,-8.307767659E-2,-3.657555580E-1
1.552585894E1,-1.127046347E-1,1.434006095E-1,-4.657847583E-1
1.553585894E1,-3.422372639E-1,2.748893574E-2,-3.610213697E-1
1.554585894E1,-6.010913849E-1,-8.368854225E-2,-6.337726861E-2
1.555585894E1,-6.940956116E-1,1.136209369E-1,-1.572977938E-2
1.556585894E1,-7.655668855E-1,2.518292069E-1,-8.323039114E-2
1.557585894E1,-8.805622458E-1,2.089159191E-1,-1.125519201E-1
1.558585894E1,-1.014952660E0,2.593123019E-1,-1.644754708E-1
1.559585894E1,-1.062141895E0,3.090978265E-1,-1.751656085E-1
1.560585894E1,-1.082605958E0,2.614503205E-1,-2.547308207E-1
1.561585894E1,-1.129642606E0,2.837468982E-1,-3.851505518E-1
1.562585894E1,-1.209971309E0,3.346014321E-1,-4.457789063E-1
1.563585894E1,-1.332907915E0,3.504839242E-1,-4.503603876E-1
1.564585894E1,-1.448972344E0,4.117231667E-1,-4.425718784E-1
1.565585894E1,-1.527926683E0,5.584835410E-1,-3.133738637E-1
1.566585894E1,-1.587944150E0,6.661485434E-1,-1.736384481E-1
1.567585894E1,-1.707673788E0,8.527678847E-1,-2.092213556E-2
1.568585894E1,-1.889711618E0,1.226617455E0,7.162395120E-2
1.569585894E1,-2.176512957E0,1.631926537E0,3.161227703E-2
1.570585894E1,-2.509281635E0,1.966986060E0,-4.780020565E-2
1.571585894E1,-2.668106556E0,2.116800785E0,1.924225502E-2
1.572585894E1,-2.773022890E0,2.077858210E0,2.144137025E-1
1.573585894E1,-2.816241503E0,1.890475273E0,5.297728777E-1
1.574585894E1,-2.791654110E0,1.661858916E0,6.725626588E-1
1.575585894E1,-2.720946550E0,1.492191076E0,6.885978580E-1
1.576585894E1,-2.500118732E0,1.168585181E0,6.815729141E-1
1.577585894E1,-2.062739134E0,9.086620808E-1,6.659958363E-1
1.578585894E1,-1.838551641E0,3.940080702E-1,6.226243973E-1
1.579585894E1,-1.982410431E0,6.429356337E-2,5.404630303E-1
1.580585894E1,-2.297311544E0,-2.148718536E-1,5.309945941E-1
1.581585894E1,-2.578920364E0,-2.837468982E-1,6.641632318E-1
1.582585894E1,-2.839607000E0,-1.244637966E-1,8.303185701E-1
1.583585894E1,-3.048522949E0,2.428189367E-1,9.460775256E-1
1.584585894E1,-3.096017838E0,5.451972485E-1,9.246972799E-1
1.585585894E1,-2.856100559E0,8.162686825E-1,7.047857642E-1
1.586585894E1,-2.437352419E0,9.046914577E-1,4.150829315E-1
1.587585894E1,-2.089464664E0,7.524332404E-1,2.733621895E-1
1.588585894E1,-1.840536952E0,7.757988572E-1,3.182607889E-1
1.589585894E1,-1.427744746E0,1.204473495E0,1.207986027E-1
1.590585894E1,-9.060658813E-1,1.427133918E0,-8.888089657E-2
1.591585894E1,-5.506950021E-1,1.256244421E0,-1.733330190E-1
1.592585894E1,-4.957171381E-1,1.065196276E0,-1.049161032E-1
1.593585894E1,-4.243986309E-1,8.197811842E-1,-1.233947799E-1
1.594585894E1,-1.786780916E-2,3.416263759E-1,-4.282165468E-1
1.595585894E1,7.489207983E-1,1.348485053E-1,-9.471465349E-1
1.596585894E1,1.384984255E0,1.307251602E-1,-9.298896194E-1
1.597585894E1,1.656208396E0,3.941608071E-1,-5.907067060E-1
1.598585894E1,1.528079391E0,5.691736937E-1,-1.244637966E-1
1.599585894E1,1.250899315E0,5.677992702E-1,2.385428846E-1
1.600585894E1,1.136056662E0,4.117231667E-1,5.198463202E-1
1.601585894E1,1.098793864E0,2.425135076E-1,6.496551633E-1
1.602585894E1,1.092532516E0,-2.150245607E-1,4.812090993E-1
1.603585894E1,9.114109278E-1,-1.452332139E-1,5.612324476E-1
1.604585894E1,6.585127115E-1,-1.446223408E-1,6.044511795E-1
1.605585894E1,4.166100919E-1,-2.577851415E-1,6.407976151E-1
1.606585894E1,2.623666227E-1,-4.103487432E-1,6.525567770E-1
1.607585894E1,4.780020565E-2,-5.474879742E-1,6.386595964E-1
1.608585894E1,-1.962404549E-1,-5.816964507E-1,5.681046844E-1
1.609585894E1,-3.900374472E-1,-5.995642543E-1,5.207626224E-1
1.610585894E1,-4.644103050E-1,-6.551529765E-1,4.656320214E-1
1.611585894E1,-4.931209683E-1,-7.312057018E-1,4.017966092E-1
1.612585894E1,-4.984660447E-1,-7.996225953E-1,3.648392558E-1
1.613585894E1,-4.958698750E-1,-8.252789378E-1,3.451388776E-1
1.614585894E1,-5.082398653E-1,-8.092437387E-1,2.927571833E-1
1.615585894E1,-5.106833577E-1,-7.121161819E-1,2.383901626E-1
1.616585894E1,-4.465425014E-1,-6.145304441E-1,2.425135076E-1
1.617585894E1,-3.430008292E-1,-5.329799056E-1,3.330742717E-1
1.618585894E1,-2.588541508E-1,-4.889976382E-1,2.990185320E-1
1.619585894E1,-1.892155111E-1,-4.563163519E-1,3.087923825E-1
1.620585894E1,-7.590000331E-2,-4.929682612E-1,3.010038435E-1
1.621585894E1,-4.749477282E-2,-5.076290369E-1,3.240640163E-1
1.622585894E1,-8.246681094E-2,-4.477642179E-1,3.013092875E-1
1.623585894E1,-1.320996135E-1,-4.039346576E-1,2.710714638E-1
1.624585894E1,-1.611157060E-1,-3.292563558E-1,2.153300047E-1
1.625585894E1,-1.618792862E-1,-2.794708610E-1,9.361509979E-2
1.626585894E1,-1.276708394E-1,-1.484402567E-1,-5.345070735E-2
1.627585894E1,-9.025534242E-2,1.166752651E-1,-2.327396572E-1
1.628585894E1,-5.696318299E-2,3.304781020E-1,-2.683225572E-1
1.629585894E1,5.192354787E-3,4.908302128E-1,-3.115412891E-1
1.630585894E1,1.415680200E-1,5.942191482E-1,-3.222314119E-1
1.631585894E1,3.135266006E-1,7.000515461E-1,-2.742784917E-1
1.632585894E1,4.540255964E-1,7.612907887E-1,-2.180788964E-1
1.633585894E1,5.351179838E-1,7.704538107E-1,-1.620320082E-1
1.634585894E1,4.809036553E-1,6.740897894E-1,-1.258382350E-1
1.635585894E1,3.152064681E-1,4.476115108E-1,-6.933320314E-2
1.636585894E1,1.085812971E-1,1.469130963E-1,1.847867295E-2
1.637585894E1,-4.062253982E-2,-1.572977938E-2,7.040221989E-2
1.638585894E1,-1.597412676E-1,-1.371392459E-1,6.505715102E-2
1.639585894E1,-1.798998117E-1,-1.973094791E-1,5.131268129E-2
1.640585894E1,-1.469130963E-1,-2.936734557E-1,3.130684420E-2
1.641585894E1,-1.296561509E-1,-4.208861589E-1,-2.443460980E-3
1.642585894E1,-1.137736514E-1,-6.446155310E-1,-6.841690838E-2
1.643585894E1,-9.789115191E-2,-7.535023093E-1,-9.346238524E-2
1.644585894E1,-1.006400511E-1,-7.276932001E-1,-8.720101416E-2
1.645585894E1,-1.403462887E-1,-6.791294217E-1,-8.811730891E-2
1.646585894E1,-2.057088763E-1,-5.487096906E-1,-9.208793938E-2
1.647585894E1,-2.234239578E-1,-3.950771093E-1,-1.876883507E-1
1.648585894E1,-2.359467000E-1,-1.463022232E-1,-2.034181207E-1
1.649585894E1,-2.545780838E-1,-8.246680722E-3,-1.611157060E-1
1.650585894E1,-2.513710558E-1,3.711006418E-2,-1.316414624E-1
1.651585894E1,-1.924225539E-1,4.596760869E-2,-6.582073122E-2
1.652585894E1,-8.689557761E-2,-6.276640296E-2,6.414084882E-2
1.653585894E1,-1.893682219E-2,-9.254608303E-2,5.772676691E-2
1.654585894E1,-1.985311974E-3,-7.024950534E-2,5.054909736E-2
1.655585894E1,2.855795063E-2,-6.139195710E-2,5.421429127E-2
1.656585894E1,8.674286306E-2,-1.122464910E-1,5.131268129E-2
1.657585894E1,1.424843222E-1,-1.446223408E-1,3.512475267E-2
1.658585894E1,1.925752759E-1,-1.304197311E-1,7.177666761E-3
1.659585894E1,2.122756690E-1,-1.411098689E-1,-2.474004216E-2
1.660585894E1,2.160935849E-1,-1.568396538E-1,-4.673119262E-2
1.661585894E1,2.284636050E-1,-1.664607823E-1,-5.177082866E-2
1.662585894E1,2.545780838E-1,-1.905899495E-1,-6.902777404E-2
1.663585894E1,2.788599730E-1,-1.597412676E-1,-6.032294407E-2
1.664585894E1,2.803871334E-1,-8.277224004E-2,-2.336559631E-2
1.665585894E1,2.415972054E-1,-1.221730467E-2,2.107485011E-2
1.666585894E1,1.785253733E-1,3.084869497E-2,6.780604273E-2
1.667585894E1,1.278235465E-1,6.459899992E-2,7.788532227E-2
1.668585894E1,1.218676195E-1,1.679879427E-1,3.054326226E-4
1.669585894E1,1.133155003E-1,1.663080603E-1,6.017022580E-2
1.670585894E1,1.634064503E-2,5.345070735E-2,1.000291854E-1
1.671585894E1,-7.513642311E-2,-1.496619824E-2,7.895433158E-2
1.672585894E1,-8.460483700E-2,-3.573561832E-2,5.940664560E-2
1.673585894E1,-4.505131021E-2,-6.215553731E-2,4.688390717E-2
1.674585894E1,-1.069014147E-2,-6.795875728E-2,5.054909736E-2
1.675585894E1,-2.626720630E-2,-9.636399150E-2,5.283984542E-2
1.676585894E1,-6.215553731E-2,-8.078692853E-2,3.955352306E-2
1.677585894E1,-1.091921628E-1,-4.184427112E-2,2.031126991E-2
1.678585894E1,-1.151480973E-1,-5.177082866E-2,1.786780916E-2
1.679585894E1,-9.789115191E-2,-6.505715102E-2,1.160643995E-2
1.680585894E1,-7.742717117E-2,-3.039054573E-2,-5.345070735E-3
1.681585894E1,-5.925392732E-2,4.581489484E-4,-3.054326226E-4
1.682585894E1,-3.176499158E-2,6.658431143E-2,6.597344577E-2
1.683585894E1,-1.771509275E-2,1.290452778E-1,1.137736514E-1
1.684585894E1,-2.809980139E-2,1.887573600E-1,1.521054506E-1
1.685585894E1,-4.092797264E-2,2.338086665E-1,1.901318133E-1
1.686585894E1,-1.053742506E-2,2.721404731E-1,1.682933718E-1
1.687585894E1,6.566801574E-3,2.645046413E-1,5.100724846E-2
1.688585894E1,9.315694682E-3,2.356412709E-1,-5.772676691E-2
1.689585894E1,3.161227703E-2,2.199114859E-1,-5.177082866E-2
1.690585894E1,7.330382615E-2,2.144137025E-1,-7.635815442E-2
1.691585894E1,1.128573567E-1,1.977676302E-1,-8.750644326E-2
1.692585894E1,1.191187203E-1,1.904372424E-1,-7.651086897E-2
1.693585894E1,1.047633886E-1,1.472185254E-1,-5.711590126E-2
1.694585894E1,8.659014851E-2,1.261436790E-1,-3.527746722E-2
1.695585894E1,7.223481685E-2,1.024726480E-1,-6.108652335E-3
1.696585894E1,5.894849449E-2,7.406741381E-2,-1.527163113E-4
1.697585894E1,3.588833287E-2,5.787948146E-2,-1.527163113E-4
1.698585894E1,2.000583708E-2,4.169155285E-2,2.290744567E-3
1.699585894E1,9.162978269E-3,2.565634064E-2,9.162978968E-4
1.700585894E1,8.093964309E-3,7.330383174E-3,1.985311974E-3
1.701585894E1,-2.748893574E-3,-1.374446787E-3,5.650503561E-3
1.702585894E1,-2.260201424E-2,1.420261711E-2,1.069014147E-2
1.703585894E1,-3.497203439E-2,2.138028294E-2,1.924225502E-2
1.704585894E1,-4.978551716E-2,2.611448988E-2,2.306016348E-2
1.705585894E1,-5.115996301E-2,4.214970022E-2,1.695151068E-2
1.706585894E1,-5.955936015E-2,2.611448988E-2,1.817324013E-2
1.707585894E1,-6.795875728E-2,1.007927675E-2,1.924225502E-2
1.708585894E1,-7.406741381E-2,8.704829961E-3,2.168571576E-2
1.709585894E1,-6.291911751E-2,-1.191187184E-2,1.802052557E-2
1.710585894E1,-5.894849449E-2,-3.634648025E-2,1.175915636E-2
1.711585894E1,-6.520986557E-2,-2.168571576E-2,5.650503561E-3
1.712585894E1,-6.673702598E-2,1.527163084E-3,9.162978968E-4
1.713585894E1,-5.818491429E-2,7.788531948E-3,2.138028387E-3
1.714585894E1,-4.596760869E-2,1.038470957E-2,-2.748893574E-3
1.715585894E1,-3.497203439E-2,2.031126991E-2,-7.635815535E-3
1.716585894E1,-2.779436857E-2,3.145955876E-2,-7.483099122E-3
1.717585894E1,-2.290744707E-2,3.527746722E-2,-1.237002108E-2
1.718585894E1,-1.298088674E-2,2.672535367E-2,-1.374446787E-2
1.719585894E1,-6.719517522E-3,2.443460934E-2,-1.252273750E-2
1.720585894E1,7.941247895E-3,2.580905706E-2,-1.374446787E-2
1.721585894E1,2.260201424E-2,2.474004216E-2,-1.740965992E-2
1.722585894E1,1.893682219E-2,2.840523422E-2,-1.496619824E-2
1.723585894E1,3.054326167E-3,2.199114859E-2,-7.635815535E-3
1.724585894E1,-6.108652451E-4,2.321287990E-2,-2.748893574E-3
1.725585894E1,5.345070735E-3,3.420845419E-2,-5.192354787E-3
1.726585894E1,1.374446787E-2,5.406157300E-2,-6.261368748E-3
1.727585894E1,1.252273750E-2,5.757404864E-2,-1.374446787E-3
1.728585894E1,5.039638374E-3,6.123924255E-2,-1.374446787E-3
1.729585894E1,-8.399397135E-3,5.864306539E-2,3.512475174E-3
1.730585894E1,-2.672535367E-2,5.589416996E-2,7.330383174E-3
1.731585894E1,-3.665191308E-2,5.451972410E-2,7.330383174E-3
1.732585894E1,-3.268129006E-2,4.108068720E-2,5.955935922E-3
1.733585894E1,-2.764165215E-2,2.275473066E-2,9.468411095E-3
1.734585894E1,-2.886338346E-2,1.664607786E-2,8.246680722E-3
1.735585894E1,-2.901609987E-2,3.512475267E-2,2.290744567E-3
1.736585894E1,-2.306016348E-2,5.238169432E-2,-1.374446787E-3
1.737585894E1,-1.572977938E-2,5.971207842E-2,-2.443460980E-3
1.738585894E1,-2.061670274E-2,4.749477282E-2,-1.527163113E-4
1.739585894E1,-2.183843218E-2,5.115996301E-2,3.512475174E-3
1.740585894E1,-1.679879427E-2,4.627304152E-2,2.290744567E-3
1.741585894E1,-9.315694682E-3,3.405573592E-2,-1.527163113E-4
1.742585894E1,-7.941247895E-3,2.428189293E-2,-3.970623948E-3
1.743585894E1,4.276056774E-3,1.710422710E-2,-5.192354787E-3
1.744585894E1,1.175915636E-2,1.847867295E-2,-3.970623948E-3
1.745585894E1,-6.108652451E-4,2.199114859E-2,-1.527163084E-3
1.746585894E1,-5.650503561E-3,3.161227703E-2,3.359758761E-3
1.747585894E1,-1.832595794E-3,2.550362423E-2,4.581489135E-3
1.748585894E1,6.108652451E-4,1.832595654E-2,3.359758761E-3
1.749585894E1,-3.054326167E-3,1.572977938E-2,4.581489135E-3
1.750585894E1,-4.123340361E-3,-1.374446787E-3,3.207042580E-3
1.751585894E1,-1.527163084E-3,-1.237002108E-2,7.635815418E-4
1.752585894E1,4.734205548E-3,-1.237002108E-2,-5.345070735E-3
1.753585894E1,1.206458826E-2,-1.099557430E-2,-5.345070735E-3
1.754585894E1,4.734205548E-3,-1.481348183E-2,1.985311974E-3
1.755585894E1,-1.007927675E-2,-1.007927675E-2,6.872233935E-3
1.756585894E1,-1.756237634E-2,9.162978968E-4,9.468411095E-3
1.757585894E1,-9.010262787E-3,3.359758761E-3,8.246680722E-3
1.758585894E1,-1.511891466E-2,9.162978968E-4,6.872233935E-3
1.759585894E1,-2.748893574E-2,6.872233935E-3,1.313360315E-2
1.760585894E1,-2.489275858E-2,7.635815418E-4,1.313360315E-2
1.761585894E1,-1.634064503E-2,5.803219974E-3,5.803219974E-3
1.762585894E1,-9.162978269E-3,1.939497143E-2,9.162978968E-4
1.763585894E1,-1.679879380E-3,1.206458826E-2,-3.970623948E-3
1.764585894E1,7.635815418E-4,9.773843922E-3,-5.192354787E-3
1.765585894E1,-6.566801574E-3,-1.527163113E-4,-2.901609987E-3
1.766585894E1,-1.145372353E-2,9.162978968E-4,-4.581489484E-4
1.767585894E1,-5.192354787E-3,-2.596177394E-3,4.428773187E-3
1.768585894E1,-1.527163084E-3,-9.926560335E-3,3.207042580E-3
1.769585894E1,-2.748893574E-3,-6.261368748E-3,3.207042580E-3
1.770585894E1,-2.901609987E-3,1.069014193E-3,7.635815418E-4
1.771585894E1,-4.123340361E-3,2.290744567E-3,-1.679879380E-3
1.772585894E1,7.635815418E-4,9.773843922E-3,-3.970623948E-3
1.773585894E1,5.497787148E-3,2.321287990E-2,-5.192354787E-3
1.774585894E1,1.023199316E-2,3.680463135E-2,-6.261368748E-3
1.775585894E1,1.771509275E-2,3.451388702E-2,-7.635815535E-3
1.776585894E1,9.162978269E-3,2.580905706E-2,-3.970623948E-3
1.777585894E1,-4.276056774E-3,2.061670274E-2,-1.527163084E-3
1.778585894E1,-3.054326167E-3,1.572977938E-2,9.162978968E-4
1.779585894E1,6.108652451E-4,1.588249579E-2,9.162978968E-4
1.780585894E1,3.207042580E-3,1.466076635E-2,2.138028387E-3
1.781585894E1,6.108652451E-4,1.832595654E-2,3.359758761E-3
1.782585894E1,-4.581489484E-4,1.206458826E-2,3.359758761E-3
1.783585894E1,-5.345070735E-3,1.206458826E-2,8.246680722E-3
1.784585894E1,-6.719517522E-3,1.572977938E-2,9.468411095E-3
1.785585894E1,-2.901609987E-3,1.084285788E-2,4.581489135E-3
1.786585894E1,-9.010262787E-3,-3.054326226E-4,4.428773187E-3
1.787585894E1,-1.634064503E-2,-6.414085161E-3,4.428773187E-3
1.788585894E1,-1.863138936E-2,-1.511891466E-2,4.428773187E-3
1.789585894E1,-1.863138936E-2,-1.634064503E-2,6.872233935E-3
1.790585894E1,-2.244929783E-2,-7.788531948E-3,1.053742506E-2
1.791585894E1,-2.733621933E-2,-1.679879380E-3,8.246680722E-3
1.792585894E1,-2.764165215E-2,1.664607786E-2,7.024950348E-3
1.793585894E1,-2.993239649E-2,1.420261711E-2,5.803219974E-3
1.794585894E1,-3.619376570E-2,1.664607786E-2,3.359758761E-3
1.795585894E1,-3.863722831E-2,1.160643995E-2,5.803219974E-3
1.796585894E1,-3.726277873E-2,3.054326167E-3,5.803219974E-3
1.797585894E1,-3.115412779E-2,5.650503561E-3,3.359758761E-3
1.798585894E1,-2.871066704E-2,9.315694682E-3,5.803219974E-3
1.799585894E1,-1.282817032E-2,1.191187184E-2,9.162978968E-4
1.800585894E1,-4.276056774E-3,1.817324013E-2,-3.970623948E-3
1.801585894E1,-1.160643995E-2,1.450804994E-2,-6.414085161E-3
1.802585894E1,-2.260201424E-2,1.435533352E-2,-1.130100712E-2
1.803585894E1,-1.389718428E-2,2.290744567E-3,-1.252273750E-2
1.804585894E1,-6.414085161E-3,-7.483099122E-3,-1.023199316E-2
1.805585894E1,-4.963280261E-2,1.649336144E-2,-1.359175146E-2
1.806585894E1,-7.177666575E-2,1.374446787E-2,2.290744567E-3
1.807585894E1,-4.214970022E-2,-6.108652451E-4,3.359758761E-3
1.808585894E1,1.786780916E-2,1.725694351E-2,4.581489135E-3
1.809585894E1,7.910704613E-2,3.512475267E-2,-5.192354787E-3
1.810585894E1,9.514226019E-2,2.672535367E-2,-5.345070735E-3
1.811585894E1,9.376781434E-2,3.649919853E-2,-3.970623948E-3
1.812585894E1,1.023199260E-1,3.420845419E-2,-1.145372353E-2
1.813585894E1,1.035416573E-1,4.520402849E-2,-1.252273750E-2
1.814585894E1,9.361509979E-2,4.642575979E-2,-1.496619824E-2
1.815585894E1,7.544185966E-2,2.641992271E-2,-1.679879380E-3
1.820697725E1,1.220203340E-1,3.191770986E-2,-5.345070735E-3
1.821697725E1,1.180497110E-1,5.879577994E-2,-5.192354787E-3
1.822697725E1,1.069014147E-1,7.345654815E-2,1.069014193E-3
1.823697725E1,9.086620808E-2,7.315111160E-2,3.512475174E-3
1.824697725E1,7.864890248E-2,6.688974798E-2,3.512475174E-3
1.825697725E1,7.895433158E-2,4.963280261E-2,1.679879427E-2
1.826697725E1,7.299839705E-2,2.504547499E-2,1.908953860E-2
1.827697725E1,6.230825558E-2,-9.468411095E-3,2.748893574E-2
1.828697725E1,5.268712714E-2,-2.916881628E-2,3.237585723E-2
1.829697725E1,5.513058975E-2,-2.916881628E-2,3.115412779E-2
1.830697725E1,5.268712714E-2,-2.794708498E-2,3.115412779E-2
1.831697725E1,4.291328415E-2,-3.420845419E-2,2.977968007E-2
1.832697725E1,3.558290005E-2,-3.054326214E-2,2.993239649E-2
1.833697725E1,4.413501546E-2,-2.428189293E-2,2.871066704E-2
1.834697725E1,4.520402849E-2,-1.084285788E-2,2.626720630E-2
1.835697725E1,3.894266114E-2,-1.069014193E-3,2.275473066E-2
1.836697725E1,3.145955876E-2,1.237002108E-2,2.397646010E-2
1.837697725E1,3.634648025E-2,1.114829071E-2,2.275473066E-2
1.838697725E1,4.978551716E-2,1.878410578E-2,1.908953860E-2
1.839697725E1,4.474587739E-2,3.329215571E-2,2.046398632E-2
1.840697725E1,3.481931984E-2,4.062253982E-2,1.802052557E-2
1.841697725E1,3.237585723E-2,3.451388702E-2,2.046398632E-2
1.842697725E1,4.489859566E-2,1.863138936E-2,2.397646010E-2
1.843697725E1,7.941248268E-2,4.276056774E-3,3.115412779E-2
1.844697725E1,9.773843735E-2,1.557706390E-2,2.519819140E-2
1.845697725E1,9.132435173E-2,3.756821156E-2,2.412917651E-2
1.846697725E1,7.773260027E-2,4.230241850E-2,2.168571576E-2
1.847697725E1,6.658431143E-2,5.940664560E-2,1.695151068E-2
1.848697725E1,6.887505949E-2,7.040221989E-2,9.621127509E-3
1.849697725E1,7.498370856E-2,7.055493444E-2,2.290744567E-3
1.850697725E1,6.169738993E-2,5.574145541E-2,-1.374446787E-3
1.851697725E1,3.848451003E-2,4.199698567E-2,-2.748893574E-3
1.852697725E1,3.481931984E-2,3.084869497E-2,9.162978968E-4
1.853697725E1,4.856378585E-2,1.267545391E-2,6.872233935E-3
1.854697725E1,5.864306539E-2,-1.420261711E-2,1.404990070E-2
1.855697725E1,4.535674304E-2,-3.161227703E-2,2.015855350E-2
1.856697725E1,3.329215571E-2,-4.764748737E-2,2.489275858E-2
1.857697725E1,2.351831272E-2,-5.757404864E-2,2.733621933E-2
1.858697725E1,2.122756653E-2,-6.627888232E-2,3.100141138E-2
1.859697725E1,3.222314268E-2,-6.734789163E-2,3.084869497E-2
1.860697725E1,4.581489414E-2,-6.230825558E-2,3.084869497E-2
1.861697725E1,5.787948146E-2,-4.260785133E-2,2.977968007E-2
1.862697725E1,6.734789163E-2,-2.031126991E-2,2.626720630E-2
1.863697725E1,6.719517708E-2,-1.985311974E-3,2.626720630E-2
1.864697725E1,5.849034712E-2,4.123340361E-3,2.641992271E-2
1.865697725E1,4.138612002E-2,6.261368748E-3,2.519819140E-2
1.866697725E1,3.512475267E-2,9.926560335E-3,1.786780916E-2
1.867697725E1,4.123340547E-2,8.857546374E-3,1.542434748E-2
1.868697725E1,4.505131021E-2,2.748893574E-3,1.786780916E-2
1.869697725E1,5.497787148E-2,-8.246680722E-3,2.138028294E-2
1.870697725E1,6.108652428E-2,-1.053742506E-2,2.138028294E-2
1.871697725E1,5.009094998E-2,-1.435533352E-2,2.504547499E-2
1.872697725E1,3.680463135E-2,-2.443460934E-2,2.871066704E-2
1.873697725E1,2.825251780E-2,-3.436116874E-2,2.993239649E-2
1.874697725E1,3.069597855E-2,-3.680463135E-2,3.237585723E-2
1.875697725E1,2.458732575E-2,-3.924809024E-2,3.466660157E-2
1.876697725E1,1.725694351E-2,-3.817907721E-2,3.359758854E-2
1.877697725E1,1.359175146E-2,-3.695734590E-2,3.481931984E-2
1.878697725E1,9.926560335E-3,-3.573561832E-2,3.604105115E-2
1.879697725E1,9.926560335E-3,-3.695734590E-2,3.481931984E-2
1.880697725E1,1.343903504E-2,-2.962696366E-2,3.359758854E-2
1.881697725E1,1.954768784E-2,-2.947424725E-2,3.359758854E-2
1.882697725E1,2.825251780E-2,-2.825251780E-2,3.726277873E-2
1.883697725E1,2.932153270E-2,-2.580905706E-2,3.481931984E-2
1.884697725E1,3.527746722E-2,-8.399397135E-3,2.764165215E-2
1.885697725E1,4.031710699E-2,-9.621127509E-3,2.504547499E-2
1.886697725E1,4.153883830E-2,-1.328631863E-2,2.260201424E-2
1.887697725E1,4.276056588E-2,-8.399397135E-3,1.893682219E-2
1.888697725E1,4.749477282E-2,7.635815535E-3,1.420261711E-2
1.889697725E1,5.115996301E-2,7.788531948E-3,8.093964309E-3
1.890697725E1,5.238169432E-2,1.679879380E-3,5.650503561E-3
1.891697725E1,5.482515693E-2,2.901609987E-3,8.093964309E-3
1.892697725E1,5.726861581E-2,5.345070735E-3,9.315694682E-3
1.893697725E1,5.238169432E-2,1.679879380E-3,1.053742506E-2
1.894697725E1,4.627304152E-2,1.527163084E-3,1.175915636E-2
1.895697725E1,4.749477282E-2,-4.581489135E-3,1.420261711E-2
1.896697725E1,5.742133409E-2,-1.053742506E-2,1.404990070E-2
1.897697725E1,6.261368841E-2,-2.779436857E-2,2.138028294E-2
1.898697725E1,6.276640296E-2,-4.367686436E-2,2.489275858E-2
1.899697725E1,5.787948146E-2,-4.871650413E-2,2.489275858E-2
1.900697725E1,5.054909736E-2,-5.971207842E-2,2.489275858E-2
1.901697725E1,4.459316283E-2,-7.208210230E-2,2.351831272E-2
1.902697725E1,4.581489414E-2,-6.352998316E-2,1.878410578E-2
1.903697725E1,5.054909736E-2,-5.604688451E-2,1.878410578E-2
1.904697725E1,5.054909736E-2,-5.604688451E-2,1.878410578E-2
1.905697725E1,5.665775016E-2,-4.734205827E-2,1.511891466E-2
1.906697725E1,6.398813426E-2,-4.978551716E-2,1.389718428E-2
1.907697725E1,6.383541971E-2,-3.985895589E-2,6.566801574E-3
1.908697725E1,6.246097013E-2,-1.908953860E-2,3.054326167E-3
1.909697725E1,5.497787148E-2,-4.428773187E-3,-1.679879380E-3
1.910697725E1,4.612032697E-2,1.023199316E-2,-6.566801574E-3
1.911697725E1,4.612032697E-2,1.634064503E-2,-1.145372353E-2
1.912697725E1,4.856378585E-2,1.023199316E-2,-9.010262787E-3
1.913697725E1,5.604688451E-2,6.108652451E-4,-9.010262787E-3
1.914697725E1,5.864306539E-2,-1.175915636E-2,-7.941247895E-3
1.915697725E1,5.390885845E-2,-2.641992271E-2,-5.497787148E-3
1.916697725E1,4.657847434E-2,-3.390302137E-2,-5.497787148E-3
1.917697725E1,3.940080851E-2,-5.115996301E-2,-4.428773187E-3
1.918697725E1,3.222314268E-2,-6.230825558E-2,-6.872233935E-3
1.919697725E1,3.237585723E-2,-8.063421398E-2,-4.581489135E-3
1.920697725E1,4.612032697E-2,-1.050688252E-1,1.527163113E-4
1.921697725E1,6.704246253E-2,-1.098030284E-1,1.374446787E-3
1.922697725E1,9.422596544E-2,-1.131627858E-1,3.665191587E-3
1.923697725E1,1.027780771E-1,-1.203404516E-1,7.330383174E-3
1.924697725E1,1.114829108E-1,-1.191187203E-1,8.552113548E-3
1.925697725E1,1.151480973E-1,-1.238529310E-1,4.886921961E-3
1.926697725E1,1.140790880E-1,-1.337794960E-1,7.177666761E-3
1.927697725E1,1.214094684E-1,-1.287398487E-1,1.206458826E-2
1.928697725E1,1.238529310E-1,-1.287398487E-1,1.817324013E-2
1.929697725E1,1.334740520E-1,-1.165225431E-1,2.443460934E-2
1.930697725E1,1.420261711E-1,-1.102611795E-1,2.809980139E-2
1.931697725E1,1.443169117E-1,-9.437867999E-2,3.054326214E-2
1.932697725E1,1.525636017E-1,-5.742133409E-2,3.069597855E-2
1.933697725E1,1.585195363E-1,-4.749477282E-2,2.474004216E-2
1.934697725E1,1.685988009E-1,-7.192938030E-2,1.725694351E-2
1.935697725E1,1.860084683E-1,-8.521570265E-2,1.343903504E-2
1.936697725E1,2.144137025E-1,-1.117883399E-1,5.955935922E-3
1.937697725E1,2.449569702E-1,-9.911288321E-2,3.512475174E-3
1.938697725E1,2.710714638E-1,-1.270599663E-1,-3.054326226E-4
1.939697725E1,2.953533530E-1,-9.987647086E-2,-6.261368748E-3
1.940697725E1,3.060434759E-1,-7.269296050E-2,-1.725694351E-2
1.941697725E1,3.049744666E-1,-8.124507964E-2,-2.825251780E-2
1.942697725E1,2.988658249E-1,-8.368854225E-2,-3.680463135E-2
1.943697725E1,3.184134960E-1,-7.849618047E-2,-3.558290005E-2
1.944697725E1,3.404046595E-1,-7.223481685E-2,-3.558290005E-2
1.945697725E1,3.549126983E-1,-4.627304152E-2,-2.687807009E-2
1.946697725E1,3.536909819E-1,-4.276056588E-2,-1.221730467E-2
1.947697725E1,3.489567637E-1,-5.635231733E-2,1.069014193E-3
1.948697725E1,3.539963961E-1,-6.368270516E-2,1.817324013E-2
1.949697725E1,3.787364662E-1,-8.918632567E-2,2.168571576E-2
1.950697725E1,4.097378552E-1,-1.085812971E-1,2.641992271E-2
1.951697725E1,4.447098970E-1,-1.669189334E-1,1.985312067E-2
1.952697725E1,4.767803252E-1,-1.800525337E-1,2.107485011E-2
1.953697725E1,5.018258095E-1,-2.238821089E-1,1.588249579E-2
1.954697725E1,5.164865851E-1,-2.225076705E-1,9.773843922E-3
1.955697725E1,5.054910183E-1,-2.261728644E-1,-6.108652335E-3
1.956697725E1,4.758640230E-1,-2.069306076E-1,1.374446787E-3
1.957697725E1,4.925101101E-1,-2.828305960E-1,4.581489135E-3
1.958697725E1,5.445863605E-1,-3.251330256E-1,1.404990070E-2
1.959697725E1,6.084218025E-1,-3.220787048E-1,2.000583708E-2
1.960697725E1,6.736316681E-1,-3.361285925E-1,2.718350291E-2
1.961697725E1,6.940956116E-1,-4.021020532E-1,3.527746722E-2
1.962697725E1,7.124215961E-1,-5.085453391E-1,2.733621933E-2
1.963697725E1,7.374670506E-1,-5.621487498E-1,1.114829071E-2
1.964697725E1,7.817547917E-1,-6.756169796E-1,3.207042580E-3
1.965697725E1,8.358163834E-1,-6.785185933E-1,-1.282817032E-2
1.966697725E1,8.765916228E-1,-5.994115472E-1,-5.390885845E-2
1.967697725E1,8.610145450E-1,-5.172501206E-1,-9.254608303E-2
1.968697725E1,8.234463334E-1,-4.573853612E-1,-1.299615800E-1
1.969697725E1,7.947356701E-1,-4.207334518E-1,-1.518000066E-1
1.970697725E1,7.701483369E-1,-4.111123085E-1,-1.748601794E-1
1.971697725E1,8.106181622E-1,-4.095851481E-1,-1.601994038E-1
1.972697725E1,9.335548282E-1,-4.207334518E-1,-9.453139454E-2
1.973697725E1,1.106276989E0,-4.951062799E-1,-6.597344577E-2
1.974697725E1,1.251510143E0,-5.337435007E-1,-7.987063378E-2
1.975697725E1,1.382387996E0,-5.972734690E-1,-1.000291854E-1
1.976697725E1,1.464549422E0,-7.031059265E-1,-7.498370856E-2
1.977697725E1,1.523192525E0,-7.811439037E-1,-4.871650413E-2
1.978697725E1,1.503950238E0,-8.266534209E-1,-5.742133409E-2
1.979697725E1,1.379791856E0,-9.205739498E-1,-1.725694388E-1
1.980697725E1,1.273195863E0,-1.054353356E0,-1.204931661E-1
1.981697725E1,1.234405994E0,-1.217759848E0,-1.421788931E-1
1.982697725E1,1.235016823E0,-1.271363258E0,-2.095267773E-1
1.983697725E1,1.243416190E0,-1.264796495E0,-2.608394623E-1
1.984697725E1,1.286634922E0,-1.282511592E0,-3.049744666E-1
1.985697725E1,1.416901946E0,-1.293201685E0,-3.100140989E-1
1.986697725E1,1.584431767E0,-1.237612963E0,-2.735149264E-1
1.987697725E1,1.688431501E0,-1.078635335E0,-2.360994220E-1
1.988697725E1,1.700954318E0,-8.799513578E-1,-2.070833147E-1
1.989697725E1,1.637118816E0,-7.677049041E-1,-2.307543457E-1
1.990697725E1,1.592831135E0,-7.606799603E-1,-2.819143236E-1
1.991697725E1,1.598481655E0,-7.199047208E-1,-3.121521473E-1
1.992697725E1,1.616044044E0,-6.397286057E-1,-3.546072841E-1
1.993697725E1,1.597259879E0,-6.116288304E-1,-3.848451078E-1
1.994697725E1,1.562898755E0,-7.225008607E-1,-3.720169365E-1
1.995697725E1,1.561218858E0,-9.162978530E-1,-3.462078869E-1
1.996697725E1,1.589013219E0,-1.091310740E0,-3.483459055E-1
1.997697725E1,1.648114443E0,-1.330922604E0,-3.607159257E-1
1.998697725E1,1.725236177E0,-1.436602354E0,-3.700316250E-1
1.999697725E1,1.765553236E0,-1.416749239E0,-3.394883573E-1
2.000697725E1,1.730428576E0,-1.343750834E0,-3.072652221E-1
2.001697725E1,1.629024863E0,-1.267698050E0,-2.871066630E-1
2.002697725E1,1.583973527E0,-1.189812779E0,-2.878702581E-1
2.003697725E1,1.623985291E0,-1.145066857E0,-3.084869385E-1
2.004697725E1,1.688126087E0,-1.182329655E0,-3.197879493E-1
2.005697725E1,1.756543040E0,-1.257771492E0,-2.897028327E-1
2.006697725E1,1.782199383E0,-1.359480619E0,-2.353358418E-1
2.007697725E1,1.760513663E0,-1.491427541E0,-1.322523206E-1
2.008697725E1,1.733635545E0,-1.624596119E0,-6.459899992E-2
2.009697725E1,1.698816299E0,-1.694845676E0,-6.368270516E-2
2.010697725E1,1.569160104E0,-1.621389031E0,-8.384125680E-2
2.011697725E1,1.375821233E0,-1.465465665E0,-7.040221989E-2
2.012697725E1,1.177595496E0,-1.409876943E0,-8.567385375E-2
2.013697725E1,1.088867307E0,-1.498757839E0,-1.531744599E-1
2.014697725E1,1.046106696E0,-1.638493299E0,-2.405281961E-1
2.015697725E1,9.506590366E-1,-1.662469745E0,-3.344487250E-1
2.016697725E1,1.006705880E0,-1.746005535E0,-3.874412775E-1
2.017697725E1,1.315192819E0,-1.772883654E0,-4.674646258E-1
2.018697725E1,1.404837370E0,-1.676061511E0,-5.038111210E-1
