"Time (s)","Gyroscope x (rad/s)","Gyroscope y (rad/s)","Gyroscope z (rad/s)"
3.867184800E-2,-8.648324609E-1,-1.367269158E0,2.058615834E-1
4.705236300E-2,-8.898779750E-1,-1.432784438E0,2.556470931E-1
5.705236300E-2,-8.778133392E-1,-1.413236737E0,2.837468982E-1
6.705236300E-2,-8.694139719E-1,-1.398576021E0,2.948952019E-1
7.705236300E-2,-8.827002645E-1,-1.409724236E0,3.020728528E-1
8.705236300E-2,-8.924741149E-1,-1.417360067E0,3.179553747E-1
9.705236300E-2,-9.166033268E-1,-1.458135366E0,3.410155177E-1
1.070523630E-1,-1.067792416E0,-1.555721045E0,3.969096839E-1
1.170523630E-1,-1.132086039E0,-1.506393671E0,4.277583957E-1
1.270523630E-1,-1.234711409E0,-1.441489220E0,4.575380683E-1
1.370523630E-1,-1.353677392E0,-1.344667077E0,4.595233798E-1
1.470523630E-1,-1.399339557E0,-1.200502872E0,4.531092942E-1
1.570523630E-1,-1.392772794E0,-1.138958216E0,4.082106948E-1
1.670523630E-1,-1.305724502E0,-1.125366449E0,3.605632186E-1
1.770523630E-1,-1.175915599E0,-1.094517827E0,3.408628106E-1
1.870523630E-1,-1.004873276E0,-1.022741079E0,3.544545472E-1
1.970523630E-1,-8.229882121E-1,-9.153815508E-1,3.791945875E-1
2.070523630E-1,-5.352706909E-1,-7.331910133E-1,3.808744848E-1
2.170523630E-1,-4.317290187E-1,-8.788823485E-1,3.127630055E-1
2.270523630E-1,-3.671300113E-1,-1.191339970E0,2.035708427E-1
2.370523630E-1,-3.468187451E-1,-1.589013219E0,1.049161032E-1
2.470523630E-1,-3.703370690E-1,-2.030363321E0,5.009094998E-2
2.570523630E-1,-6.333145499E-1,-3.137861967E0,4.703662544E-2
2.670523630E-1,-8.605564237E-1,-3.585473537E0,6.459899992E-2
2.770523630E-1,-1.056949615E0,-3.579517603E0,1.357648075E-1
2.870523630E-1,-1.102459073E0,-3.113885641E0,3.178026378E-1
2.970523630E-1,-9.662361145E-1,-2.525469542E0,5.978843570E-1
3.070523630E-1,-5.778785348E-1,-2.074956417E0,1.029307961E0
3.170523630E-1,-4.871650338E-1,-1.951561689E0,1.079856992E0
3.270523630E-1,-4.214970171E-1,-1.895514846E0,1.051909924E0
3.370523630E-1,-2.139555514E-1,-2.006997824E0,1.014341712E0
3.470523630E-1,-5.177082866E-2,-1.793042183E0,1.003040791E0
3.570523630E-1,-9.621127509E-3,-1.390482068E0,1.005178809E0
3.670523630E-1,-2.244929820E-1,-2.510656118E-1,1.147052169E0
3.770523630E-1,-4.205807149E-1,6.414084882E-2,1.168737888E0
3.870523630E-1,-5.966626406E-1,2.167044431E-1,1.155146122E0
3.970523630E-1,-6.916521788E-1,2.696970105E-1,1.158047795E0
4.070523630E-1,-7.119634151E-1,2.189951837E-1,1.176068306E0
4.170523630E-1,-7.162395120E-1,-4.146247804E-1,1.127504468E0
4.270523630E-1,-6.600399017E-1,-1.301601171E0,9.054549932E-1
4.370523630E-1,-5.904012322E-1,-2.541810274E0,5.409211516E-1
4.470523630E-1,-5.742133260E-1,-3.480099201E0,1.989893466E-1
4.570523630E-1,-5.519167781E-1,-4.304003716E0,3.817907721E-2
4.670523630E-1,-2.272418737E-1,-5.461898804E0,3.390302062E-1
4.770523630E-1,2.794708498E-2,-5.536271572E0,7.667886019E-1
4.870523630E-1,2.984076738E-1,-5.195256233E0,1.266170979E0
4.970523630E-1,5.604688525E-1,-4.547433376E0,1.703855872E0
5.070523630E-1,5.784893632E-1,-3.807065010E0,1.986075640E0
5.170523630E-1,-4.552473128E-1,-2.475378752E0,1.850921750E0
5.270523630E-1,-7.026477456E-1,-2.405282021E0,1.998292923E0
5.370523630E-1,-9.659306407E-1,-2.348013401E0,2.191937208E0
5.470523630E-1,-1.233489633E0,-2.115426302E0,2.365728378E0
5.570523630E-1,-1.368949056E0,-1.960877419E0,2.537687063E0
5.670523630E-1,-1.146135926E0,-1.996307611E0,2.727666140E0
5.770523630E-1,-9.274461865E-1,-1.894445896E0,2.696053743E0
5.870523630E-1,-7.279986739E-1,-1.724778056E0,2.575713396E0
5.970523630E-1,-5.881105065E-1,-1.623221636E0,2.458885431E0
6.070523630E-1,-4.857905805E-1,-1.657735586E0,2.480418444E0
6.170523630E-1,-3.491095006E-1,-2.120160580E0,2.787836313E0
6.270523630E-1,-2.826778889E-1,-2.469422817E0,2.878549814E0
6.370523630E-1,-2.376265824E-1,-2.653140545E0,2.938567162E0
6.470523630E-1,-1.264491081E-1,-3.048217535E0,3.003471613E0
6.570523630E-1,1.027780771E-1,-3.358689785E0,3.079524517E0
6.670523630E-1,3.466660380E-1,-3.417638302E0,3.147177696E0
6.770523630E-1,6.072000265E-1,-2.987131119E0,3.186883926E0
6.870523630E-1,5.960517526E-1,-2.637868881E0,3.171612263E0
6.970523630E-1,5.195409060E-1,-2.372753382E0,3.209791422E0
7.070523630E-1,4.387539625E-1,-2.284941435E0,3.338684082E0
7.170523630E-1,3.875939846E-1,-2.306932688E0,3.454595566E0
7.270523630E-1,4.303545654E-1,-2.524247885E0,3.364187717E0
7.370523630E-1,5.297728777E-1,-2.651918650E0,3.153439045E0
7.470523630E-1,6.542366743E-1,-2.597398996E0,2.845868349E0
7.570523630E-1,7.886270285E-1,-2.220036983E0,2.498438835E0
7.670523630E-1,9.191994667E-1,-1.597565293E0,2.181705236E0
7.770523630E-1,1.143997908E0,-1.620320082E-1,1.759291887E0
7.870523630E-1,1.216232657E0,4.134030640E-1,1.594969153E0
7.970523630E-1,1.236085773E0,8.336783648E-1,1.444696307E0
8.070523630E-1,1.203099132E0,1.043815970E0,1.291980028E0
8.170523630E-1,1.119410515E0,1.050077319E0,1.123686671E0
8.270523630E-1,8.156577945E-1,1.077413559E0,8.827002645E-1
8.370523630E-1,6.633996367E-1,1.293048978E0,8.156577945E-1
8.470523630E-1,5.348125100E-1,1.606117487E0,7.015787363E-1
8.570523630E-1,4.199698567E-1,1.881617665E0,5.384777188E-1
8.670523630E-1,3.026837409E-1,2.046856642E0,3.674354553E-1
8.770523630E-1,6.475171447E-2,1.876883507E0,3.970624134E-2
8.870523630E-1,-8.093964309E-3,1.575268745E0,-1.168279797E-1
8.970523630E-1,-3.527746722E-2,1.243568897E0,-2.674062550E-1
9.070523630E-1,-3.711006418E-2,9.527970552E-1,-4.375322461E-1
9.170523630E-1,-2.229658142E-2,7.050912380E-1,-6.291912198E-1
9.270523630E-1,3.481931984E-2,2.881756723E-1,-9.404270649E-1
9.370523630E-1,5.345070735E-2,1.513418704E-1,-9.973902106E-1
9.470523630E-1,3.405573592E-2,2.419026345E-1,-1.007774949E0
9.570523630E-1,-3.069597855E-2,5.560401082E-1,-9.657779336E-1
9.670523630E-1,-1.269072592E-1,9.320276380E-1,-8.646797538E-1
9.770523630E-1,-2.487748712E-1,1.313665748E0,-7.367035151E-1
9.870523630E-1,-5.426010489E-1,1.813353539E0,-5.528330207E-1
9.970523630E-1,-6.711881757E-1,1.891544223E0,-5.375614166E-1
1.007052363E0,-7.741189599E-1,1.874592662E0,-5.679519773E-1
1.017052363E0,-8.542950749E-1,1.791973233E0,-6.403394938E-1
1.027052363E0,-8.964447379E-1,1.714698792E0,-7.237225771E-1
1.037052363E0,-8.362745047E-1,1.589471340E0,-7.768678665E-1
1.047052363E0,-7.214318514E-1,1.417360067E0,-6.876815557E-1
1.057052363E0,-5.897904038E-1,1.185231328E0,-5.682573915E-1
1.067052363E0,-4.431827366E-1,9.176723361E-1,-4.637994468E-1
1.077052363E0,-2.696970105E-1,6.531676650E-1,-3.898847401E-1
1.087052363E0,1.125519201E-1,4.080579877E-1,-2.990185320E-1
1.097052363E0,2.681698501E-1,4.314235747E-1,-2.209804952E-1
1.107052363E0,3.732386529E-1,3.730859458E-1,-1.165225431E-1
1.117052363E0,4.088215530E-1,1.548543423E-1,-4.214970022E-2
1.127052363E0,3.816380501E-1,-1.679879427E-1,-2.183843218E-2
1.137052363E0,3.003929853E-1,-8.268061280E-1,-7.895433158E-2
1.147052363E0,3.217732608E-1,-1.103680730E0,-7.559457421E-2
1.157052363E0,3.753767014E-1,-1.283733368E0,-1.191187184E-2
1.167052363E0,4.366159439E-1,-1.370934367E0,1.548543423E-1
1.177052363E0,4.815145433E-1,-1.429424644E0,3.888157308E-1
1.187052363E0,5.206099153E-1,-1.605201125E0,7.759515643E-1
1.197052363E0,5.607742667E-1,-1.791667819E0,8.555167913E-1
1.207052363E0,6.495024562E-1,-2.054492474E0,9.124799371E-1
1.217052363E0,7.745771408E-1,-2.374738693E0,9.886853695E-1
1.227052363E0,9.239336848E-1,-2.661998034E0,1.129795313E0
1.237052363E0,1.002124429E0,-2.954755306E0,1.237918377E0
1.247052363E0,8.883507848E-1,-3.442683697E0,1.244027019E0
1.257052363E0,7.463245988E-1,-3.592956543E0,1.291063666E0
1.267052363E0,5.890268087E-1,-3.678783178E0,1.436144233E0
1.277052363E0,4.378376603E-1,-3.774841785E0,1.638646007E0
1.287052363E0,3.194825351E-1,-3.931681395E0,1.833359361E0
1.297052363E0,1.835650057E-1,-4.409988880E0,2.022574902E0
1.307052363E0,1.524108797E-1,-4.577213287E0,2.266004562E0
1.317052363E0,1.281289905E-1,-4.591721535E0,2.623666286E0
1.327052363E0,1.281289905E-1,-4.591721535E0,2.623666286E0
1.337052363E0,-2.813034356E-1,-3.659388304E0,2.148260355E0
1.347052363E0,-8.582656831E-2,-2.558303595E0,2.065946341E0
1.357052363E0,4.673119262E-2,-2.166891813E0,2.934596539E0
1.367052363E0,1.974621862E-1,-2.206445217E0,3.520111084E0
1.377052363E0,1.937969923E-1,-2.497675180E0,4.489096165E0
1.387052363E0,2.764165215E-2,-2.485610723E0,5.971513271E0
1.397052363E0,-1.064738154E0,-1.902234316E0,8.643896103E0
1.407052363E0,-1.547932506E0,-1.925447226E0,8.993768692E0
1.417052363E0,-1.810757279E0,-2.530967474E0,8.247596741E0
1.427052363E0,-1.632384658E0,-3.208875179E0,6.834818363E0
1.437052363E0,-1.056033254E0,-3.922518492E0,5.371185303E0
1.447052363E0,6.099489331E-1,-5.026046753E0,3.643505812E0
1.457052363E0,7.805330753E-1,-4.506352901E0,2.682767391E0
1.467052363E0,2.730567753E-1,-3.280193567E0,1.864971638E0
1.477052363E0,-5.487096906E-1,-1.694845676E0,1.310764074E0
1.487052363E0,-1.182482362E0,-1.062905490E-1,9.871582389E-1
1.497052363E0,-1.432479024E0,2.349998713E0,1.249830246E0
1.507052363E0,-1.307098866E0,3.694360256E0,1.364214778E0
1.517052363E0,-8.981246352E-1,4.686558247E0,1.027017236E0
1.527052363E0,-2.316706479E-1,4.893794060E0,3.616322279E-1
1.537052363E0,5.777258277E-1,4.372115135E0,-3.371976018E-1
1.547052363E0,1.208749652E0,3.321732521E0,-8.822421432E-1
1.557052363E0,9.995282292E-1,1.315651059E0,-1.246623278E0
1.567052363E0,3.740022480E-1,1.037249207E0,-1.150717378E0
1.577052363E0,-8.017606288E-2,1.142318010E0,-1.106582403E0
1.587052363E0,-1.789835095E-1,1.420872569E0,-1.129337072E0
1.597052363E0,5.742133409E-2,1.583057284E0,-1.150870085E0
1.607052363E0,6.382014751E-1,2.252871037E0,-1.176373720E0
1.617052363E0,7.556403279E-1,2.510808945E0,-1.260673165E0
1.627052363E0,9.871582389E-1,2.093587875E0,-1.606270194E0
1.637052363E0,1.860542774E0,7.848091125E-1,-2.149482012E0
1.647052363E0,3.162143946E0,-7.260133624E-1,-2.574949741E0
1.657052363E0,4.348138809E0,-2.772259235E0,-2.834567547E0
1.667052363E0,3.859904766E0,-3.362354994E0,-2.641534090E0
1.677052363E0,3.090519905E0,-3.509268045E0,-2.450485945E0
1.687052363E0,2.669175625E0,-3.255453587E0,-2.422844172E0
1.697052363E0,2.437657833E0,-2.968805075E0,-2.387872219E0
1.707052363E0,-4.751004577E-1,1.200197458E0,-1.278999090E0
1.717052363E0,-1.251357436E0,2.152383804E0,-9.721920490E-1
1.727052363E0,-1.428202987E0,1.945758581E0,-7.825183868E-1
1.737052363E0,-1.483944416E0,1.208749652E0,-6.472117305E-1
1.747052363E0,-1.547016263E0,2.191479057E-1,-7.159340382E-1
1.757052363E0,-1.605048418E0,-1.113912821E0,-9.867000580E-1
1.767052363E0,-1.585806131E0,-1.420261741E0,-9.602801800E-1
1.777052363E0,-1.639867783E0,-1.510669708E0,-6.957755089E-1
1.787052363E0,-2.078621626E0,-7.675521970E-1,-2.747366428E-1
1.797052363E0,-2.554332972E0,2.220495194E-1,2.661845386E-1
1.807052363E0,-1.850616217E0,-3.358231783E-1,8.148942590E-1
1.817052363E0,-4.445571899E-1,-1.664455056E0,-4.251621962E-1
1.827052363E0,-1.547016203E-1,-2.444988251E0,7.437284291E-2
1.837052363E0,9.636399150E-2,-4.204432964E0,1.701565146E0
1.847052363E0,-1.400408596E-1,-4.049731255E0,3.166572809E0
1.857052363E0,6.337726861E-2,-3.073415756E0,3.724445343E0
1.867052363E0,-9.816604257E-1,-3.842800617E0,5.707161427E0
1.877052363E0,-1.043357849E0,-4.697095394E0,4.253607273E0
1.887052363E0,-5.464189649E-1,-5.797874928E0,2.339919329E0
1.897052363E0,-2.907718420E-1,-6.138890266E0,9.239336848E-1
1.907052363E0,-1.123992056E-1,-5.418985367E0,3.452915847E-1
1.917052363E0,1.023810148E0,6.872233748E-1,1.126740932E0
1.927052363E0,1.348637700E0,3.140763760E0,1.489747643E0
1.937052363E0,1.426828504E0,4.214817524E0,1.848172784E0
1.947052363E0,1.351692080E0,4.245819092E0,2.076789141E0
1.957052363E0,1.362687588E0,4.139680862E0,2.014022827E0
1.967052363E0,1.422857881E0,3.777590752E0,-2.038762718E-1
1.977052363E0,1.403615594E0,2.741868734E0,-1.812284470E0
1.987052363E0,1.855350494E0,1.106887817E0,-2.777756929E0
1.997052363E0,2.511877775E0,-6.108652353E-1,-3.621819973E0
2.007052363E0,2.935818434E0,-1.379639149E0,-4.525136948E0
2.017052363E0,2.321746111E0,1.523497939E0,-3.562413454E0
2.027052363E0,-9.162978968E-4,3.036763906E0,-5.655084848E-1
2.037052363E0,-1.508226275E0,2.595871925E0,3.295617998E-1
2.047052363E0,-1.843438625E0,1.658957243E0,-3.048217595E-1
2.057052363E0,-1.395216227E0,1.293507218E-1,-1.025490046E0
2.067052363E0,3.451388702E-2,-2.664441586E0,-1.504408360E0
2.077052363E0,1.146899462E-1,-2.481334686E0,-1.657430172E0
2.087052363E0,-1.285871267E-1,-1.894140363E0,-1.684308171E0
2.097052363E0,-6.971499324E-1,-1.072984815E0,-1.227228284E0
2.107052363E0,-1.383151650E0,-2.634356320E-1,-4.746423066E-1
2.117052363E0,-1.723556280E0,9.123272300E-1,-6.856962293E-2
2.127052363E0,-1.377806544E0,3.724139929E0,7.260133624E-1
2.137052363E0,-1.775632501E0,3.766442299E0,1.354440928E0
2.147052363E0,-2.318080902E0,3.197115898E0,1.694082022E0
2.157052363E0,-2.424066067E0,2.541046619E0,1.514945865E0
2.167052363E0,-1.948965549E0,1.961641073E0,1.260825872E0
2.177052363E0,-1.642616630E0,6.036875844E-1,2.008677721E0
2.187052363E0,-2.325563908E0,-3.649919927E-1,2.446667910E0
2.197052363E0,-3.086396694E0,-1.284496903E0,2.698039055E0
2.207052363E0,-3.733302832E0,-2.206445217E0,2.724764347E0
2.217052363E0,-4.210541248E0,-2.698039055E0,2.664441586E0
2.227052363E0,-3.626401424E0,-2.366033792E0,2.096336842E0
2.237052363E0,-1.687362552E0,-9.505063295E-1,1.662317038E0
2.247052363E0,-3.184134960E-1,-1.563815027E-1,1.785100937E0
2.257052363E0,-5.558873713E-2,-8.280278444E-1,1.846951127E0
2.267052363E0,1.618792862E-2,-9.056077003E-1,1.380097270E0
2.277052363E0,3.940080702E-1,-4.529565871E-1,9.825767279E-1
2.287052363E0,6.160575747E-1,-3.254384696E-1,9.999864101E-1
2.297052363E0,2.154827118E-1,-1.977676302E-1,5.997169614E-1
2.307052363E0,-5.329799056E-1,-6.148358583E-1,2.533563673E-1
2.317052363E0,-9.818131924E-1,-6.511823535E-1,3.723223805E-1
2.327052363E0,-8.462010622E-1,-5.855143666E-1,5.225952268E-1
2.337052363E0,-3.294090927E-1,-7.020368576E-1,2.487748712E-1
2.347052363E0,1.705841124E-1,-1.087645531E0,-1.899790913E-1
2.357052363E0,5.603161454E-1,-1.840384245E0,-5.083925724E-1
2.367052363E0,8.310821652E-1,-2.105499744E0,-3.491095006E-1
2.377052363E0,1.061225653E0,-2.249358654E0,1.857030392E-1
2.387052363E0,1.043663263E0,-2.310750484E0,3.685044646E-1
2.397052363E0,9.430232048E-1,-2.417957306E0,4.876231849E-1
2.407052363E0,7.958046794E-1,-2.653903961E0,5.209153295E-1
2.417052363E0,6.415612102E-1,-2.928029776E0,5.624541640E-1
2.427052363E0,5.948300362E-1,-3.359148026E0,6.322455406E-1
2.437052363E0,3.234531581E-1,-3.454137564E0,8.530732989E-1
2.447052363E0,2.408336252E-1,-2.975830078E0,8.753699064E-1
2.457052363E0,2.900082767E-1,-2.530509233E0,9.082038999E-1
2.467052363E0,2.944370508E-1,-2.140471935E0,8.943067193E-1
2.477052363E0,2.576324046E-1,-1.808313847E0,8.303185701E-1
2.487052363E0,2.895501256E-1,-1.264643788E0,5.743660331E-1
2.497052363E0,3.359758854E-1,-1.133154988E0,4.016439021E-1
2.507052363E0,3.278819323E-1,-1.081689596E0,1.699732542E-1
2.517052363E0,2.512183189E-1,-1.041983366E0,-8.491026610E-2
2.527052363E0,4.016438872E-2,-1.060767531E0,-2.127338201E-1
2.537052363E0,-1.091921568E0,-1.906052232E0,7.319692969E-1
2.547052363E0,-1.091768861E0,-2.136806726E0,1.005484223E0
2.557052363E0,-6.435465217E-1,-2.138792038E0,9.338602424E-1
2.567052363E0,-6.062837690E-2,-2.125047445E0,7.107416987E-1
2.577052363E0,4.327980280E-1,-2.133904934E0,4.240931869E-1
2.587052363E0,9.337075353E-1,-2.613739729E0,-1.389718428E-2
2.597052363E0,9.909761548E-1,-2.680629492E0,-2.138028387E-3
2.607052363E0,1.001360893E0,-2.614350557E0,2.069306076E-1
2.617052363E0,8.026769161E-1,-2.606867552E0,4.599815309E-1
2.627052363E0,3.833179474E-1,-2.429716587E0,6.155994534E-1
2.637052363E0,-4.239404798E-1,-1.699427128E0,6.159048676E-1
2.647052363E0,-6.255260110E-1,-1.234864116E0,4.454734921E-1
2.657052363E0,-4.714352489E-1,-5.204572082E-1,1.487456858E-1
2.667052363E0,4.780020565E-2,-2.924517393E-1,-1.159116775E-1
2.677052363E0,4.410447180E-1,-6.750060916E-1,-2.052507252E-1
2.687052363E0,9.005680680E-1,-7.121161819E-1,-3.356704414E-1
2.697052363E0,1.194546938E0,-4.346306324E-1,-4.787656367E-1
2.707052363E0,1.296561480E0,-3.295617998E-1,-4.344778955E-1
2.717052363E0,1.256397128E0,-2.147191316E-1,-1.252273750E-2
2.727052363E0,1.335809588E0,-2.583959997E-1,5.230533481E-1
2.737052363E0,1.776548862E0,-4.604396820E-1,8.898779750E-1
2.747052363E0,2.203390837E0,-1.097266674E0,9.662361145E-1
2.757052363E0,2.111303091E0,-1.437365890E0,8.828529716E-1
2.767052363E0,1.845729351E0,-1.741729498E0,8.498662710E-1
2.777052363E0,1.542129278E0,-2.059379339E0,6.948592067E-1
2.787052363E0,1.307251573E0,-2.141235352E0,6.227771044E-1
2.797052363E0,1.067028880E0,-1.846492887E0,7.176139355E-1
2.807052363E0,1.008080363E0,-1.717447639E0,7.648032904E-1
2.817052363E0,9.772316813E-1,-1.604895711E0,7.299839854E-1
2.827052363E0,9.717338681E-1,-1.441641927E0,6.918048859E-1
2.837052363E0,9.598219991E-1,-1.363145828E0,6.629415154E-1
2.847052363E0,8.718574047E-1,-1.400561333E0,6.042984724E-1
2.857052363E0,7.124215961E-1,-1.409876943E0,6.339253783E-1
2.867052363E0,5.697845817E-1,-1.394605398E0,7.049384713E-1
2.877052363E0,4.602869749E-1,-1.251510143E0,7.620543838E-1
2.887052363E0,3.665191531E-1,-8.712465763E-1,7.557930350E-1
2.897052363E0,7.971791178E-2,-1.559233516E-1,2.901609838E-1
2.907052363E0,-1.999056488E-1,-9.590584040E-2,-9.468411095E-3
2.917052363E0,-6.921103001E-1,1.076650023E-1,-1.453859210E-1
2.927052363E0,-1.068556070E0,6.948592514E-2,-1.901318133E-1
2.937052363E0,-1.370170712E0,-4.382958114E-1,-3.046690524E-1
2.947052363E0,-1.867262363E0,-1.243416190E0,-4.668537676E-1
2.957052363E0,-2.104888916E0,-1.525330544E0,-5.167919993E-1
2.967052363E0,-2.347402334E0,-1.702634096E0,-6.516404748E-1
2.977052363E0,-2.552958488E0,-1.777770638E0,-7.761042714E-1
2.987052363E0,-2.662761688E0,-1.854434133E0,-8.886561990E-1
2.997052363E0,-2.681545734E0,-1.932166815E0,-1.044121385E0
3.007052363E0,-2.631454706E0,-1.825418115E0,-1.401324868E0
3.017052363E0,-2.390773773E0,-1.947743893E0,-1.618487477E0
3.027052363E0,-2.019367695E0,-2.253634691E0,-1.866193295E0
3.037052363E0,-1.635591745E0,-2.675742388E0,-2.148565769E0
3.047052363E0,-1.204626322E0,-2.912147284E0,-2.433839798E0
3.057052363E0,-5.088507533E-1,-2.092977047E0,-2.611296177E0
3.067052363E0,-5.677992702E-1,-1.543809175E0,-2.731636763E0
3.077052363E0,-6.647741199E-1,-1.205847979E0,-2.852893353E0
3.087052363E0,-7.924449444E-1,-1.102000952E0,-2.817921400E0
3.097052363E0,-9.254608750E-1,-1.260978580E0,-2.476753235E0
3.107052363E0,-5.665774941E-1,-1.103375316E0,-1.242347240E0
3.117052363E0,-1.547016203E-1,-9.340129495E-1,-1.102917194E0
3.127052363E0,1.574505121E-1,-8.617781401E-1,-1.350928545E0
3.137052363E0,3.368921876E-1,-7.725918293E-1,-1.586417079E0
3.147052363E0,4.544837475E-1,-6.366742849E-1,-1.567480206E0
3.157052363E0,7.556403279E-1,-4.184426963E-1,-1.192103505E0
3.167052363E0,9.185886383E-1,-4.882340431E-1,-1.102459073E0
3.177052363E0,9.845620394E-1,-7.968736887E-1,-1.028544307E0
3.187052363E0,9.949467778E-1,-1.175457478E0,-8.107708693E-1
3.197052363E0,9.752463698E-1,-1.496161699E0,-5.097670555E-1
3.207052363E0,8.344419003E-1,-1.934152126E0,1.437060535E-1
3.217052363E0,7.396050692E-1,-1.890322447E0,4.407392740E-1
3.227052363E0,6.519459486E-1,-1.724778056E0,7.043276429E-1
3.237052363E0,5.328271985E-1,-1.597259879E0,9.188940525E-1
3.247052363E0,3.735440969E-1,-1.506851792E0,1.091768861E0
3.257052363E0,3.735440969E-1,-1.506851792E0,1.091768861E0
3.267052363E0,-3.329215571E-2,-1.676366925E0,1.224632144E0
3.277052363E0,-5.604688451E-2,-1.967749715E0,1.105818868E0
3.287052363E0,8.093964309E-3,-2.346028090E0,9.034696817E-1
3.297052363E0,1.475239545E-1,-2.654362202E0,6.293439269E-1
3.307052363E0,3.419318199E-1,-2.714990616E0,2.368630022E-1
3.317052363E0,1.643227488E-1,-1.683697343E0,-7.962628603E-1
3.327052363E0,-4.596760869E-2,-7.790058851E-1,-1.219439745E0
3.337052363E0,4.459316283E-2,-1.913535446E-1,-1.327562928E0
3.347052363E0,1.287398487E-1,8.689557761E-2,-1.375057697E0
3.357052363E0,1.617265791E-1,2.196060568E-1,-1.358564258E0
3.367052363E0,5.574145541E-2,-3.203988075E-1,-1.456455469E0
3.377052363E0,6.811147183E-2,-7.765624523E-1,-1.436907768E0
3.387052363E0,-7.971791178E-2,-1.289078355E0,-1.275944829E0
3.397052363E0,-5.955935922E-3,-2.302809238E0,-1.136209369E0
3.407052363E0,-3.159700334E-1,-2.689028740E0,-8.678867817E-1
3.417052363E0,-1.663386106E0,-2.320677042E0,5.195409060E-1
3.427052363E0,-1.493412852E0,-2.965292692E0,1.895362139E0
3.437052363E0,-8.813258410E-1,-3.563635111E0,2.469728231E0
3.447052363E0,-1.660026312E-1,-4.351346016E0,1.597412586E0
3.457052363E0,4.060726762E-1,-4.508032799E0,9.413433671E-1
3.467052363E0,1.576643229E0,-2.971248627E0,9.390525818E-1
3.477052363E0,2.210568666E0,-1.963779092E0,1.159422278E0
3.487052363E0,2.475531340E0,-1.396590710E0,8.946121335E-1
3.497052363E0,2.347402334E0,-1.162781954E0,4.749477208E-1
3.507052363E0,2.253023624E0,-9.520334601E-1,2.942843437E-1
3.517052363E0,2.439948559E0,-9.848675132E-1,3.999640048E-1
3.527052363E0,2.458427191E0,-1.098946571E0,4.592179358E-1
3.537052363E0,2.300823927E0,-1.167058110E0,4.871650338E-1
3.547052363E0,2.066557169E0,-1.178359032E0,5.192354321E-1
3.557052363E0,1.927432537E0,-1.147968531E0,4.867068827E-1
3.567052363E0,1.854281425E0,-7.461718917E-1,4.046982229E-1
3.577052363E0,1.796401978E0,-5.051855445E-1,4.024074674E-1
3.587052363E0,1.693776608E0,-3.239113092E-1,4.451680481E-1
3.597052363E0,1.567480206E0,-1.123992056E-1,5.196936131E-1
3.607052363E0,1.526399493E0,5.726861581E-2,5.755877495E-1
3.617052363E0,1.594358325E0,1.255328059E-1,5.514585972E-1
3.627052363E0,1.692707539E0,5.526803136E-1,2.020436823E-1
3.637052363E0,1.441489220E0,1.063210964E0,6.475171447E-2
3.647052363E0,9.008735418E-1,1.433089852E0,-5.558873713E-2
3.657052363E0,2.901609838E-1,1.571603537E0,-1.722639948E-1
3.667052363E0,-1.562287807E-1,1.636660695E0,-2.028072625E-1
3.677052363E0,-4.896084964E-1,1.471116185E0,-2.116648108E-1
3.687052363E0,-5.511531830E-1,1.375363111E0,-3.025310040E-1
3.697052363E0,-5.662720799E-1,1.284955025E0,-3.846924007E-1
3.707052363E0,-5.583308339E-1,1.224479437E0,-5.193881989E-1
3.717052363E0,-6.385068893E-1,1.141248941E0,-7.015787363E-1
3.727052363E0,-1.126588225E0,8.323038816E-1,-1.017396092E0
3.737052363E0,-1.362687588E0,7.406741381E-1,-1.319010735E0
3.747052363E0,-1.559844375E0,7.796167731E-1,-1.657735586E0
3.757052363E0,-1.627650499E0,8.032878041E-1,-1.848020077E0
3.767052363E0,-1.615585804E0,7.057020664E-1,-1.931555867E0
3.777052363E0,-1.607033730E0,-5.529857874E-1,-2.193464279E0
3.787052363E0,-1.715462327E0,-1.326188445E0,-2.489123106E0
3.797052363E0,-1.776090741E0,-2.656652927E0,-2.773328304E0
3.807052363E0,-1.840842366E0,-3.947258472E0,-2.971859455E0
3.817052363E0,-1.990046263E0,-3.675728798E0,-3.132516861E0
3.827052363E0,-2.100918293E0,-5.615378618E-1,-2.753016949E0
3.837052363E0,-1.791973233E0,2.886338234E-1,-2.436435938E0
3.847052363E0,-1.297783256E0,5.981897712E-1,-2.029141665E0
3.857052363E0,-8.764389157E-1,7.199047208E-1,-1.675145268E0
3.867052363E0,-5.465716720E-1,7.698429227E-1,-1.410487890E0
3.877052363E0,-3.029891551E-1,7.327328324E-1,-1.313513041E0
3.887052363E0,5.299255997E-2,1.283427835E0,-1.519832730E0
3.897052363E0,2.893974185E-1,1.348484993E0,-1.489442229E0
3.907052363E0,4.770857692E-1,9.260717034E-1,-1.236849427E0
3.917052363E0,6.049093008E-1,4.761694670E-1,-9.746354818E-1
3.927052363E0,6.904304624E-1,1.921171248E-1,-6.649268270E-1
3.937052363E0,8.084801435E-1,-6.983717084E-1,-1.353066564E-1
3.947052363E0,8.504771590E-1,-1.393689036E0,-1.695151068E-2
3.957052363E0,8.487972617E-1,-2.016008139E0,1.114829108E-1
3.967052363E0,8.142833710E-1,-2.330756426E0,4.297437072E-1
3.977052363E0,7.547240257E-1,-2.478127480E0,7.892379165E-1
3.987052363E0,4.524984360E-1,-2.643213987E0,1.452942967E0
3.997052363E0,3.310889602E-1,-2.413223267E0,1.741271377E0
4.007052363E0,2.432770878E-1,-2.008372307E0,1.943773150E0
4.017052363E0,1.631010175E-1,-1.620014668E0,2.063197374E0
4.027052363E0,8.857546002E-2,-1.315803766E0,2.085799456E0
4.037052363E0,8.399397135E-3,-1.061989188E0,1.932166815E0
4.047052363E0,-9.162978269E-3,-1.041830659E0,1.783421040E0
4.057052363E0,-1.130100712E-2,-1.311680436E0,1.602452278E0
4.067052363E0,4.169155285E-2,-1.680184841E0,1.379486442E0
4.077052363E0,1.704314053E-1,-1.895820260E0,1.173014045E0
4.087052363E0,-7.635815535E-3,-1.364062071E0,6.572909951E-1
4.097052363E0,-7.562511563E-1,-1.860084683E-1,8.872817457E-2
4.107052363E0,-9.848675132E-1,1.045343161E0,-4.718934000E-1
4.117052363E0,-8.565858006E-1,1.875509024E0,-8.865181804E-1
4.127052363E0,-6.140722632E-1,2.029905319E0,-1.055727839E0
4.137052363E0,-3.420845270E-1,1.174235702E0,-1.197448611E0
4.147052363E0,-4.314235747E-1,5.786421299E-1,-1.187063932E0
4.157052363E0,-3.643811047E-1,-5.589416996E-2,-1.160185814E0
4.167052363E0,-1.623374373E-1,-7.951938510E-1,-1.182787776E0
4.177052363E0,-2.527455091E-1,-9.422596693E-1,-1.147968531E0
4.187052363E0,-5.102251768E-1,-2.952006161E-1,-9.498954415E-1
4.197052363E0,-5.519167781E-1,-2.131919712E-1,2.933680415E-1
4.207052363E0,-6.814202070E-1,-1.250899315E0,1.027780771E0
4.217052363E0,-6.980662346E-1,-2.513099670E0,1.541060328E0
4.227052363E0,-5.169447064E-1,-3.454137564E0,1.800678015E0
4.237052363E0,-2.782491148E-1,-3.948938370E0,1.963626385E0
4.247052363E0,6.580545902E-1,-3.339294910E0,2.027614355E0
4.257052363E0,9.694431424E-1,-2.741105080E0,1.764026165E0
4.267052363E0,1.036638379E0,-2.391079187E0,1.349554062E0
4.277052363E0,1.085507512E0,-2.064724445E0,9.715811610E-1
4.287052363E0,1.269836187E0,-1.640936732E0,7.464773059E-1
4.297052363E0,1.923767328E0,-9.242390990E-1,6.013968587E-1
4.307052363E0,2.222327709E0,-8.252789378E-1,6.050620079E-1
4.317052363E0,2.449722290E0,-9.602801800E-1,6.394231915E-1
4.327052363E0,2.640770435E0,-1.134987593E0,6.966918111E-1
4.337052363E0,2.785087347E0,-1.190270901E0,7.706065178E-1
4.347052363E0,2.622750044E0,-1.051451802E0,8.449793458E-1
4.357052363E0,2.360841513E0,-1.010371089E0,8.724682927E-1
4.367052363E0,2.015702486E0,-1.002124429E0,8.938485980E-1
4.377052363E0,1.690111399E0,-9.822713137E-1,8.713992834E-1
4.387052363E0,1.405753613E0,-9.283624291E-1,7.585419416E-1
4.397052363E0,1.405753613E0,-9.283624291E-1,7.585419416E-1
4.407052363E0,-8.979719132E-2,-3.853032589E-1,2.073887438E-1
4.417052363E0,-7.322747111E-1,-2.474004179E-1,1.371392459E-1
4.427052363E0,-1.258229733E0,-2.041817009E-1,1.505782902E-1
4.437052363E0,-1.643227458E0,-2.370157093E-1,2.168571651E-1
4.447052363E0,-1.970193148E0,2.138028294E-2,2.542726696E-1
4.457052363E0,-1.988060951E0,4.117231667E-1,1.574505121E-1
4.467052363E0,-2.109317780E0,6.073527932E-1,2.443460980E-3
4.477052363E0,-2.329992771E0,2.246456891E-1,-1.701259762E-1
4.487052363E0,-2.464383125E0,-6.394231915E-1,-2.696970105E-1
4.497052363E0,-2.362979412E0,-1.504561067E0,-3.770565689E-1
4.507052363E0,-1.927890658E0,-2.583960056E0,-7.327328324E-1
4.517052363E0,-1.831832170E0,-2.729804039E0,-9.815077186E-1
4.527052363E0,-1.858710170E0,-2.756682158E0,-1.273348570E0
4.537052363E0,-1.924072862E0,-2.648864508E0,-1.597412586E0
4.547052363E0,-1.924225569E0,-2.424066067E0,-1.912466407E0
4.557052363E0,-1.924225569E0,-2.424066067E0,-1.912466407E0
4.567052363E0,-1.924225569E0,-2.424066067E0,-1.912466407E0
4.577052363E0,-1.052673578E0,-3.135418653E0,-2.747824669E0
4.587052363E0,-5.884159207E-1,-2.930778742E0,-2.917186975E0
4.597052363E0,-7.142542005E-1,-1.186300278E0,-2.923601151E0
4.607052363E0,-4.555527568E-1,3.575088978E-1,-2.238210201E0
4.617052363E0,-5.444336534E-1,-3.637702465E-1,-1.904983282E0
4.627052363E0,-7.958046794E-1,-9.392052889E-1,-1.675603390E0
4.637052363E0,-9.181304574E-1,-1.086729288E0,-1.394147158E0
4.647052363E0,-8.368853927E-1,-1.315498352E0,-1.124602914E0
4.657052363E0,-3.553708494E-1,-1.531439185E0,-7.944302559E-1
4.667052363E0,-7.437284291E-2,-1.279762745E0,-5.177083015E-1
4.677052363E0,1.511891484E-1,-1.012203693E0,-3.359758854E-1
4.687052363E0,3.982841372E-1,-8.158105612E-1,-3.207042515E-1
4.697052363E0,6.566801667E-1,-7.574729323E-1,-3.807217777E-1
4.707052363E0,1.070694089E0,-8.874344826E-1,-4.431827366E-1
4.717052363E0,1.254717231E0,-9.932668805E-1,-4.390594065E-1
4.727052363E0,1.363298535E0,-9.253081083E-1,-3.095559776E-1
4.737052363E0,1.426828504E0,-8.776606321E-1,-1.568396538E-1
4.747052363E0,1.492496490E0,-9.282097220E-1,6.414085161E-3
4.757052363E0,1.439962149E0,-1.031904101E0,4.711298347E-1
4.767052363E0,1.281900764E0,-1.059393048E0,6.969972253E-1
4.777052363E0,1.065196276E0,-1.099862933E0,9.303477407E-1
4.787052363E0,8.312348723E-1,-1.251662850E0,1.092379808E0
4.797052363E0,6.572909951E-1,-1.513571382E0,1.091158032E0
4.807052363E0,5.392413139E-1,-1.848630905E0,9.382890463E-1
4.817052363E0,3.776674271E-1,-2.358550787E0,5.841398835E-1
4.827052363E0,3.561344445E-1,-2.206750631E0,3.591887653E-1
4.837052363E0,3.368921876E-1,-1.918727756E0,1.166752651E-1
4.847052363E0,2.116648108E-1,-1.589929461E0,-1.536326110E-1
4.857052363E0,2.611448988E-2,-1.255938888E0,-4.042400718E-1
4.867052363E0,-5.955935922E-3,-9.317222238E-1,-7.783950567E-1
4.877052363E0,5.009094998E-2,-1.012356400E0,-9.388998747E-1
4.887052363E0,1.087340117E-1,-1.213331103E0,-1.076802731E0
4.897052363E0,7.696902007E-2,-1.570992708E0,-1.199586630E0
4.907052363E0,1.278235465E-1,-2.191478968E0,-1.281137109E0
4.917052363E0,-1.682933718E-1,-3.069445133E0,-1.185231328E0
4.927052363E0,-7.496843934E-1,-2.325716734E0,-9.347765446E-1
4.937052363E0,-1.329853654E0,-1.328021049E0,-5.109887719E-1
4.947052363E0,-1.671480060E0,-7.089090943E-1,-9.315694869E-2
4.957052363E0,-1.773952723E0,-6.415612102E-1,1.588249654E-1
4.967052363E0,-1.361771345E0,-2.059684992E0,4.886921942E-1
4.977052363E0,-9.844093323E-1,-2.889392614E0,5.323690772E-1
4.987052363E0,-5.067127347E-1,-3.465285778E0,5.334380865E-1
4.997052363E0,4.428773001E-2,-3.664122343E0,5.801692605E-1
5.007052363E0,6.097962260E-1,-3.377473831E0,6.272059083E-1
5.017052363E0,6.097962260E-1,-3.377473831E0,6.272059083E-1
5.027052363E0,2.373975039E0,-4.486805201E-1,4.091269970E-1
5.037052363E0,2.561052561E0,1.818851233E-1,2.730567753E-1
5.047052363E0,2.657721996E0,3.170390725E-1,1.869247705E-1
5.057052363E0,2.812423706E0,2.112066597E-1,1.469130963E-1
5.067052363E0,3.018285275E0,-9.453139454E-2,1.803579628E-1
5.077052363E0,2.932764053E0,-3.481931984E-1,4.367686510E-1
5.087052363E0,2.672535419E0,-4.534147382E-1,5.551238060E-1
5.097052363E0,2.381152630E0,-6.398813725E-1,6.412557960E-1
5.107052363E0,2.058615923E0,-8.927795291E-1,7.160868049E-1
5.117052363E0,1.779297709E0,-1.059087634E0,7.559457421E-1
5.127052363E0,1.444390893E0,-1.095739484E0,7.344127297E-1
5.137052363E0,1.363603950E0,-1.002277136E0,7.276932001E-1
5.147052363E0,1.289842010E0,-8.851437569E-1,6.844745278E-1
5.157052363E0,1.162934661E0,-7.325801253E-1,5.647448897E-1
5.167052363E0,8.964447379E-1,-5.117523670E-1,4.283692539E-1
5.177052363E0,1.069014193E-3,-1.455386430E-1,2.744311988E-1
5.187052363E0,-3.645338416E-1,-6.979135424E-2,2.388483137E-1
5.197052363E0,-5.384777188E-1,1.527163107E-2,2.469422817E-1
5.207052363E0,-5.479460955E-1,9.224065393E-2,2.802344263E-1
5.217052363E0,-5.862779021E-1,1.162171140E-1,2.976440787E-1
5.227052363E0,-1.146899462E0,1.698205322E-1,-7.834346592E-2
5.237052363E0,-1.539075017E0,1.925752759E-1,-3.352122903E-1
5.247052363E0,-1.963931799E0,1.879937798E-1,-5.737552047E-1
5.257052363E0,-2.375044107E0,4.550946131E-2,-6.971499324E-1
5.267052363E0,-2.689334154E0,-2.990185320E-1,-8.547531962E-1
5.277052363E0,-2.986672878E0,-8.741481900E-1,-1.202793717E0
5.287052363E0,-2.958267689E0,-1.127810001E0,-1.393383622E0
5.297052363E0,-2.780200481E0,-1.599092484E0,-1.619556427E0
5.307052363E0,-2.493551970E0,-2.233170509E0,-1.864055276E0
5.317052363E0,-2.266768217E0,-2.668106556E0,-2.135279417E0
5.327052363E0,-1.682170153E0,-3.062725544E0,-2.978273392E0
5.337052363E0,-1.377348423E0,-2.531578302E0,-3.079829931E0
5.347052363E0,-1.383915186E0,-7.915286422E-1,-2.942232370E0
5.357052363E0,-1.174082994E0,1.029155254E0,-2.767983198E0
5.367052363E0,-6.331618428E-1,1.777312398E0,-2.417041063E0
5.377052363E0,-3.408628106E-1,1.573741555E0,-2.024254799E0
5.387052363E0,-5.193881989E-1,8.529205918E-1,-1.508989930E0
5.397052363E0,-4.434881806E-1,3.301726580E-1,-1.282511592E0
5.407052363E0,-2.327396572E-1,-3.074179292E-1,-1.276402950E0
5.417052363E0,2.367102914E-2,-6.366742849E-1,-1.321454287E0
5.427052363E0,2.095267773E-1,-7.825183868E-1,-1.186911225E0
5.437052363E0,5.934556127E-1,-9.466884136E-1,-8.796459436E-1
5.447052363E0,7.742717266E-1,-1.323897719E0,-7.953465581E-1
5.457052363E0,8.930850029E-1,-1.403004766E0,-6.666067243E-1
5.467052363E0,1.032667756E0,-1.463480353E0,-5.462662578E-1
5.477052363E0,1.177595496E0,-1.695303798E0,-4.512766898E-1
5.487052363E0,1.312291265E0,-2.436894178E0,-2.162462920E-1
5.497052363E0,1.306640744E0,-2.804482222E0,-2.412917651E-2
5.507052363E0,1.274417639E0,-2.993850470E0,2.228130996E-1
5.517052363E0,1.246928692E0,-2.934443951E0,5.186246037E-1
5.527052363E0,1.132086039E0,-2.848006487E0,8.208501935E-1
5.537052363E0,5.794056654E-1,-2.919172287E0,1.266934514E0
5.547052363E0,3.723223805E-1,-2.961016655E0,1.336725831E0
5.557052363E0,2.393064648E-1,-3.029738903E0,1.291369081E0
5.567052363E0,1.713477075E-1,-3.114191055E0,1.142012596E0
5.577052363E0,1.963931769E-1,-3.174055815E0,9.353874326E-1
5.587052363E0,2.918408811E-1,-3.055242538E0,4.938845634E-1
5.597052363E0,2.544253767E-1,-2.572353601E0,2.182316035E-1
5.607052363E0,3.008511290E-2,-1.612684250E0,-1.840231568E-1
5.617052363E0,-4.520402849E-2,-4.641048610E-1,-5.280929804E-1
5.627052363E0,3.772092983E-2,2.506074607E-1,-7.867944241E-1
5.637052363E0,2.593123019E-1,1.757764816E-1,-1.211193085E0
5.647052363E0,3.652974069E-1,-4.355469346E-1,-1.313513041E0
5.657052363E0,3.711006343E-1,-1.195157886E0,-1.379944563E0
5.667052363E0,3.787364662E-1,-2.010510206E0,-1.363603950E0
5.677052363E0,3.014619946E-1,-2.690708637E0,-1.331686258E0
5.687052363E0,7.024950348E-3,-2.941621542E0,-1.319010735E0
5.697052363E0,-6.056728959E-1,-2.450791359E0,-6.354525685E-1
5.707052363E0,-7.254024744E-1,-2.013717175E0,-1.275181174E-1
5.717052363E0,-8.287914395E-1,-1.620472789E0,3.998112977E-1
5.727052363E0,-8.972083330E-1,-1.963626385E0,8.936958313E-1
5.737052363E0,-8.628471494E-1,-2.744464874E0,1.169043422E0
5.747052363E0,-1.317941695E-1,-3.673132658E0,1.387427688E0
5.757052363E0,4.187481403E-1,-3.721238375E0,1.443627238E0
5.767052363E0,9.172141552E-1,-3.263394833E0,1.465923905E0
5.777052363E0,1.212872982E0,-2.444835424E0,1.469894528E0
5.787052363E0,1.196837783E0,-1.896889329E0,1.207833290E0
5.797052363E0,1.353371978E0,-1.324355841E0,4.184426963E-1
5.807052363E0,1.617418408E0,-9.984592199E-1,3.220787048E-1
5.817052363E0,1.922698379E0,-6.053674817E-1,3.553708494E-1
5.827052363E0,2.169487953E0,-3.811798990E-1,4.292855561E-1
5.837052363E0,2.330756426E0,-3.063489199E-1,5.247332454E-1
5.847052363E0,2.391384602E0,-6.757696867E-1,7.301366925E-1
5.857052363E0,2.269975185E0,-1.025642753E0,7.773260474E-1
5.867052363E0,2.051438093E0,-1.240209222E0,7.863363028E-1
5.877052363E0,1.797929168E0,-1.413389444E0,7.944302559E-1
5.887052363E0,1.549459696E0,-1.600314260E0,8.341364861E-1
5.897052363E0,1.172555804E0,-1.829846859E0,7.919867635E-1
5.907052363E0,1.058018565E0,-1.801288843E0,7.166976333E-1
5.917052363E0,9.500481486E-1,-1.697747231E0,6.185010672E-1
5.927052363E0,8.365799785E-1,-1.443169117E0,4.870123267E-1
5.937052363E0,6.658431292E-1,-9.954048991E-1,3.248275816E-1
5.947052363E0,4.686863720E-1,-5.874996781E-1,1.931861341E-1
5.957052363E0,3.054326226E-4,-1.999056488E-1,1.215621829E-1
5.967052363E0,-3.692680299E-1,-8.429940045E-2,1.838704348E-1
5.977052363E0,-9.074403048E-1,-5.467243865E-2,1.971567571E-1
5.987052363E0,-1.518610954E0,-2.965750694E-1,1.528690308E-1
5.997052363E0,-1.959808469E0,-7.170031071E-1,1.343903542E-1
6.007052363E0,-2.069306135E0,-1.814727902E0,2.287690341E-1
6.017052363E0,-2.007914066E0,-2.382985353E0,2.292271852E-1
6.027052363E0,-2.054645300E0,-2.826168060E0,2.379320115E-1
6.037052363E0,-2.119549751E0,-3.078302622E0,2.501493096E-1
6.047052363E0,-2.145816803E0,-3.037680149E0,1.710422635E-1
6.057052363E0,-2.171167850E0,-2.530662060E0,-2.021963894E-1
6.067052363E0,-2.171778679E0,-2.267684460E0,-5.340489149E-1
6.077052363E0,-2.199267626E0,-2.025323629E0,-9.721920490E-1
6.087052363E0,-2.257299900E0,-2.011579275E0,-1.355357289E0
6.097052363E0,-2.338697672E0,-2.450638533E0,-1.698205352E0
6.107052363E0,-2.051438093E0,-3.292410851E0,-2.527302265E0
6.117052363E0,-1.261131287E0,-3.399312258E0,-2.901457310E0
6.127052363E0,-7.284567952E-1,-2.247678757E0,-3.002402782E0
6.137052363E0,-6.261368990E-1,-1.301143020E-1,-2.870455742E0
6.147052363E0,-5.476406813E-1,1.233336926E0,-2.741105080E0
6.157052363E0,-1.021672130E0,1.320996135E-1,-2.536312580E0
6.167052363E0,-1.131016970E0,-6.327036619E-1,-2.126269102E0
6.177052363E0,-1.058476806E0,-1.061072946E0,-1.682017446E0
6.187052363E0,-9.091202021E-1,-1.357037187E0,-1.506699085E0
6.197052363E0,-7.076873779E-1,-1.359633327E0,-1.510822415E0
6.207052363E0,-2.434297949E-1,-3.323107064E-1,-1.010371089E0
6.217052363E0,2.122756653E-2,7.727445662E-2,-7.363980412E-1
6.227052363E0,2.808452845E-1,1.461495161E-1,-7.108944058E-1
6.237052363E0,5.068654418E-1,2.474004216E-2,-6.887505651E-1
6.247052363E0,6.461427212E-1,-1.418734491E-1,-6.520986557E-1
6.257052363E0,7.669413090E-1,-2.987131178E-1,-6.517932415E-1
6.267052363E0,1.061072946E0,-4.624249935E-1,-5.995642543E-1
6.277052363E0,1.145219564E0,-7.417431474E-1,-4.680754840E-1
6.287052363E0,1.187827468E0,-1.152855396E0,-3.019201458E-1
6.297052363E0,1.158200502E0,-1.579850197E0,-7.956519723E-2
6.307052363E0,1.059545755E0,-1.870316625E0,1.498146951E-1
6.317052363E0,7.958046794E-1,-1.747074604E0,6.087272167E-1
6.327052363E0,7.098253965E-1,-1.506393671E0,7.835873961E-1
6.337052363E0,5.361869931E-1,-8.886561990E-1,9.166033268E-1
6.347052363E0,-1.290147424E0,1.137339497E1,8.425359130E-1
6.357052363E0,-2.671008408E-1,7.827932835E0,6.557638645E-1
6.367052363E0,2.931389570E0,-5.816658974E0,1.194852471E0
6.377052363E0,2.182774305E0,-5.884770393E0,7.293730974E-1
6.387052363E0,1.111011147E0,-4.304920197E0,6.542366743E-1
6.397052363E0,3.637702465E-1,-2.778825998E0,5.172501206E-1
6.407052363E0,1.151480973E-1,-1.953241587E0,1.632537395E-1
6.417052363E0,3.011565804E-1,-4.495968223E-1,-2.356412709E-1
6.427052363E0,2.802344263E-1,-1.038470957E-2,-3.222314119E-1
6.437052363E0,1.893682331E-1,2.264782935E-1,-3.489567637E-1
6.447052363E0,3.588833287E-2,3.364340365E-1,-3.675881624E-1
6.457052363E0,-1.446223408E-1,3.335324228E-1,-4.247040749E-1
6.467052363E0,1.569923609E-1,-7.706065178E-1,-5.471825600E-1
6.477052363E0,3.349068761E-1,-1.660026312E0,-5.436700583E-1
6.487052363E0,-1.162171140E-1,-1.945300341E0,-4.175263941E-1
6.497052363E0,-7.687739134E-1,-1.196379542E0,-1.485929638E-1
6.507052363E0,-1.114065528E0,-1.237002090E-1,2.849686444E-1
6.517052363E0,-4.282165468E-1,7.987063378E-2,9.636399150E-1
6.527052363E0,-1.035416573E-1,-4.216497242E-1,9.812023044E-1
6.537052363E0,1.908953935E-1,-7.446447611E-1,1.013120055E0
6.547052363E0,4.651738703E-1,-1.016327024E0,1.020908594E0
6.557052363E0,7.102835774E-1,-1.085812926E0,9.993755221E-1
6.567052363E0,9.213374853E-1,-9.547823668E-1,1.008233070E0
6.577052363E0,1.315803766E0,-3.194825351E-1,8.743008971E-1
6.587052363E0,1.513876796E0,9.147707373E-2,7.809911966E-1
6.597052363E0,1.705993891E0,2.617557645E-1,7.376197577E-1
6.607052363E0,1.830304980E0,9.468411095E-3,7.371616364E-1
6.617052363E0,1.897652864E0,-4.239404798E-1,7.579310536E-1
6.627052363E0,2.009746552E0,-1.478904724E0,8.596401215E-1
6.637052363E0,2.142304420E0,-1.692249417E0,9.179777503E-1
6.647052363E0,2.357787132E0,-1.857946634E0,9.436340928E-1
6.657052363E0,2.653293133E0,-1.708742857E0,9.195048809E-1
6.667052363E0,2.797762871E0,-1.335198760E0,8.419250250E-1
6.677052363E0,2.640312195E0,-7.593054771E-1,6.035348773E-1
6.687052363E0,2.478585720E0,-5.742133260E-1,4.949535728E-1
6.697052363E0,2.209041357E0,-4.146247804E-1,3.753767014E-1
6.707052363E0,1.782810211E0,-2.790127099E-1,2.596177161E-1
6.717052363E0,1.210276723E0,-2.591595948E-1,1.765400618E-1
6.727052363E0,-5.222897977E-2,-2.209804952E-1,2.704605758E-1
6.737052363E0,-5.422956347E-1,-9.178250283E-2,3.147483170E-1
6.747052363E0,-8.712465763E-1,1.334740520E-1,3.762930036E-1
6.757052363E0,-1.091768861E0,3.159700334E-1,3.984368443E-1
6.767052363E0,-1.259756804E0,4.014911950E-1,3.601050675E-1
6.777052363E0,-1.515403986E0,4.098905921E-1,1.029307917E-1
6.787052363E0,-1.612226129E0,3.912591934E-1,-5.192354694E-2
6.797052363E0,-1.738675237E0,2.669481039E-1,-2.136501223E-1
6.807052363E0,-1.895667553E0,1.634064503E-2,-4.247040749E-1
6.817052363E0,-2.054797888E0,-1.536326110E-1,-6.108652353E-1
6.827052363E0,-2.253329277E0,-1.992947906E-1,-7.267768979E-1
6.837052363E0,-2.716823101E0,-3.857614100E-1,-9.833403230E-1
6.847052363E0,-2.859765530E0,-6.878342628E-1,-1.173930287E0
6.857052363E0,-2.951395512E0,-1.079704285E0,-1.443169117E0
6.867052363E0,-3.004388094E0,-1.642616630E0,-1.731802940E0
6.877052363E0,-2.990490913E0,-2.374127865E0,-1.978592515E0
6.887052363E0,-2.990490913E0,-2.374127865E0,-1.978592515E0
6.897052363E0,-2.520888090E0,-3.856239557E0,-3.051882744E0
6.907052363E0,-2.023032904E0,-3.125492096E0,-3.171001434E0
6.917052363E0,-2.099849224E0,-1.019839525E0,-3.004540682E0
6.927052363E0,-1.933235765E0,1.180955291E0,-2.707354784E0
6.937052363E0,-1.329089999E0,2.468964577E0,-1.859168410E0
6.947052363E0,-1.414153099E0,1.950492740E0,-1.599245191E0
6.957052363E0,-1.441336513E0,1.077413559E0,-1.387885809E0
6.967052363E0,-1.336420417E0,5.913175344E-1,-1.081689596E0
6.977052363E0,-1.182024240E0,8.200865984E-2,-6.916521788E-1
6.987052363E0,-6.565274000E-1,-6.860016584E-1,-4.219551682E-1
6.997052363E0,-1.443169117E-1,-2.559525371E-1,-4.596760869E-1
7.007052363E0,2.738203406E-1,-2.212859392E-1,-5.688682795E-1
7.017052363E0,5.702427030E-1,-4.944954216E-1,-6.635523438E-1
7.027052363E0,8.542950749E-1,-5.309945941E-1,-5.800165534E-1
7.037052363E0,1.243263483E0,-6.250678897E-1,-5.372560024E-1
7.047052363E0,1.430341005E0,-6.659958363E-1,-5.085453391E-1
7.057052363E0,1.627803206E0,-7.476990819E-1,-4.311181605E-1
7.067052363E0,1.764484286E0,-9.960157871E-1,-2.507601976E-1
7.077052363E0,1.799303532E0,-1.366047382E0,9.621127509E-3
7.087052363E0,1.564425945E0,-1.745089293E0,6.794348955E-1
7.097052363E0,1.313818455E0,-1.710575461E0,1.016937971E0
7.107052363E0,1.084438562E0,-1.482875347E0,1.279915452E0
7.117052363E0,8.674286604E-1,-1.392009139E0,1.480890036E0
7.127052363E0,7.327328324E-1,-1.308320642E0,1.603673935E0
7.137052363E0,6.869179606E-1,-1.158353209E0,1.646129131E0
7.147052363E0,6.817256212E-1,-1.250593901E0,1.461342335E0
7.157052363E0,7.231117487E-1,-1.462105989E0,1.224479437E0
7.167052363E0,8.074111342E-1,-1.553735733E0,9.002626538E-1
7.177052363E0,8.353582025E-1,-1.220050573E0,4.735732675E-1
7.187052363E0,7.287622094E-1,-4.692972302E-1,-2.519819140E-2
7.197052363E0,4.239404798E-1,1.301753879E0,-9.906707406E-1
7.207052363E0,3.985895813E-1,1.599245191E0,-1.192867160E0
7.217052363E0,3.594942093E-1,1.462105989E0,-1.298546791E0
7.227052363E0,1.970040351E-1,1.151786447E0,-1.371850610E0
7.237052363E0,-1.275181174E-1,8.481863737E-1,-1.437671304E0
7.247052363E0,-2.429716438E-1,-3.822489381E-1,-1.313513041E0
7.257052363E0,-3.338378668E-1,-7.137960196E-1,-1.156367898E0
7.267052363E0,-8.990409374E-1,-9.361509979E-2,-7.345654368E-1
7.277052363E0,-1.304960847E0,5.778785348E-1,-1.430951804E-1
7.287052363E0,-1.409571528E0,6.357579827E-1,4.616613984E-1
7.297052363E0,-1.436144233E0,-2.614503205E-1,1.261436701E0
7.307052363E0,-1.362229466E0,-1.177137375E0,1.380860925E0
7.317052363E0,-1.185536742E0,-1.940871596E0,1.519374609E0
7.327052363E0,-9.025533795E-1,-2.676658869E0,1.656513810E0
7.337052363E0,-4.660901725E-1,-3.172375917E0,1.732566595E0
7.347052363E0,6.145304441E-1,-2.959183931E0,1.711033583E0
7.357052363E0,1.114523649E0,-2.427120447E0,1.590998530E0
7.367052363E0,1.561371565E0,-1.644754648E0,1.344056249E0
7.377052363E0,2.030057907E0,-7.292203903E-1,1.030835152E0
7.387052363E0,2.523942471E0,1.450804994E-2,7.483099103E-1
7.397052363E0,3.148552179E0,1.160491228E0,5.164865851E-1
7.407052363E0,3.405879259E0,1.096503139E0,6.426302195E-1
7.417052363E0,3.764151573E0,7.849618196E-1,7.124215961E-1
7.427052363E0,4.099669456E0,7.603744864E-1,7.226535678E-1
7.437052363E0,4.218788147E0,7.541131377E-1,7.677049041E-1
7.447052363E0,4.077830791E0,5.247332454E-1,9.436340928E-1
7.457052363E0,3.630983114E0,3.011565804E-1,1.235016823E0
7.467052363E0,3.254689932E0,2.092213556E-2,1.287856698E0
7.477052363E0,2.670702934E0,-3.568980098E-1,1.247844934E0
7.487052363E0,1.933388472E0,-7.637342811E-1,1.086881995E0
7.497052363E0,1.202335477E0,-1.168127060E0,9.199630618E-1
7.507052363E0,5.849034712E-2,-1.345430732E0,7.513642311E-1
7.517052363E0,-2.698497176E-1,-1.174999356E0,7.698429227E-1
7.527052363E0,-3.801108897E-1,-9.799805880E-1,7.480044961E-1
7.537052363E0,-3.805690408E-1,-8.260425329E-1,6.072000265E-1
7.547052363E0,-4.008803070E-1,-5.468770862E-1,4.268420935E-1
7.557052363E0,-7.586946487E-1,3.924809024E-2,1.266018152E-1
7.567052363E0,-1.066265345E0,2.073887438E-1,-6.490442902E-2
7.577052363E0,-1.315498352E0,1.789835095E-1,-3.210096955E-1
7.587052363E0,-1.517083883E0,-3.726277873E-2,-6.343835592E-1
7.597052363E0,-1.673007131E0,-2.791654170E-1,-8.684976697E-1
7.607052363E0,-1.939344406E0,-4.115704596E-1,-9.627236128E-1
7.617052363E0,-2.205376148E0,-5.661193728E-1,-1.037554622E0
7.627052363E0,-2.521193504E0,-7.701483369E-1,-1.123686671E0
7.637052363E0,-2.685516357E0,-1.012814522E0,-1.246775985E0
7.647052363E0,-2.690556049E0,-1.252121091E0,-1.442100167E0
7.657052363E0,-2.832582235E0,-1.429119229E0,-2.083814144E0
7.667052363E0,-2.777756929E0,-1.641700387E0,-2.523178816E0
7.677052363E0,-2.386650562E0,-2.754391432E0,-2.946202993E0
7.687052363E0,-2.186286688E0,-3.014314651E0,-3.189632893E0
7.697052363E0,-2.297311544E0,-1.726152420E0,-3.357162714E0
7.707052363E0,-2.379320145E0,2.813034356E-1,-3.386484146E0
7.717052363E0,-1.727832317E0,2.651002407E0,-2.313957453E0
7.727052363E0,-1.439656615E0,2.604882240E0,-1.598176241E0
7.737052363E0,-1.541671157E0,2.199114799E0,-1.154535294E0
7.747052363E0,-1.706910253E0,1.146899462E0,-9.645562172E-1
7.757052363E0,-1.827097893E0,1.172861308E-1,-8.075638413E-1
7.767052363E0,-1.524566889E0,-8.000807762E-1,-3.613267839E-1
7.777052363E0,-1.192867160E0,-8.087855577E-1,-1.372919679E-1
7.787052363E0,-8.767443299E-1,-6.290385127E-1,-7.941248268E-2
7.797052363E0,-5.259549618E-1,-2.808452845E-1,-4.712825418E-1
7.807052363E0,-1.725694388E-1,2.866485119E-1,-8.509352803E-1
7.817052363E0,3.926336467E-1,4.932736754E-1,-5.151121020E-1
7.827052363E0,5.593998432E-1,1.643227488E-1,-5.561928153E-1
7.837052363E0,7.808384895E-1,1.101084575E-1,-7.156286240E-1
7.847052363E0,1.030835152E0,-6.246097013E-2,-7.231117487E-1
7.857052363E0,1.262811184E0,-2.823724449E-1,-5.989533663E-1
7.867052363E0,1.387274981E0,-3.946189582E-1,-3.451388702E-2
7.877052363E0,1.305724502E0,-4.399756789E-1,2.498438805E-1
7.887052363E0,1.215927243E0,-2.993239760E-1,5.705481172E-1
7.897052363E0,1.145066857E0,2.061670274E-2,8.910996914E-1
7.907052363E0,1.041830659E0,1.699732542E-1,1.165530920E0
7.917052363E0,8.396342993E-1,3.481931984E-2,1.469130874E0
7.927052363E0,8.541423082E-1,-4.856378585E-2,1.504102945E0
7.937052363E0,9.531024694E-1,-1.229366288E-1,1.398423314E0
7.947052363E0,1.048550248E0,-2.237294018E-1,1.200044751E0
7.957052363E0,1.048550248E0,-2.237294018E-1,1.200044751E0
7.967052363E0,1.091158032E0,-2.035708427E-1,9.570731521E-1
7.977052363E0,3.714060783E-1,1.109178543E0,-2.041817009E-1
7.987052363E0,3.197879493E-1,1.772425532E0,-5.227479339E-1
7.997052363E0,4.021020532E-1,1.871691108E0,-5.772676468E-1
8.007052363E0,4.337143302E-1,1.566869378E0,-5.813909769E-1
8.017052363E0,4.575380683E-1,1.174693823E0,-5.616905689E-1
8.027052363E0,3.654501438E-1,2.738203406E-1,-5.674937963E-1
8.037052363E0,4.436408877E-1,-2.576324046E-1,-5.180137157E-1
8.047052363E0,6.232352853E-1,-9.524916410E-1,-4.439463317E-1
8.057052363E0,4.106541574E-1,-9.448558092E-1,-4.618141353E-1
8.067052363E0,-4.975497425E-1,2.787072659E-1,-3.048217595E-1
8.077052363E0,-1.681253910E0,1.119410515E0,4.928155243E-1
8.087052363E0,-1.509600759E0,5.050328374E-1,1.059393048E0
8.097052363E0,-1.261131287E0,-6.421720982E-1,1.505782843E0
8.107052363E0,-1.118341565E0,-1.556637406E0,1.760666370E0
8.117052363E0,-9.236282706E-1,-1.847561955E0,2.004096270E0
8.127052363E0,-3.375030458E-1,-1.867262363E0,2.293493509E0
8.137052363E0,-3.848451003E-2,-1.821447492E0,2.152841806E0
8.147052363E0,3.016147017E-1,-1.845423937E0,1.860390067E0
8.157052363E0,6.600399017E-1,-1.742645860E0,1.502575755E0
8.167052363E0,9.605855942E-1,-1.286329508E0,1.170112371E0
8.177052363E0,1.398270488E0,3.434589803E-1,8.727737069E-1
8.187052363E0,1.716836810E0,6.207917929E-1,7.883216143E-1
8.197052363E0,2.123520374E0,7.113525867E-1,7.625125647E-1
8.207052363E0,2.455067396E0,5.983424783E-1,7.979426980E-1
8.217052363E0,2.805551291E0,3.097086847E-1,7.078400850E-1
8.227052363E0,3.441920280E0,1.176984668E0,7.834346890E-1
8.237052363E0,3.460551500E0,1.512502313E0,8.816312551E-1
8.247052363E0,3.399770498E0,1.449125051E0,9.181304574E-1
8.257052363E0,3.585015297E0,1.132696867E0,8.636107445E-1
8.267052363E0,3.847992897E0,6.423248053E-1,7.322747111E-1
8.277052363E0,3.782783031E0,-2.521346211E-1,5.212207437E-1
8.287052363E0,3.434131622E0,1.811215430E-1,3.837760985E-1
8.297052363E0,2.434298038E0,6.708827615E-1,4.857905805E-1
8.307052363E0,8.477282524E-1,4.842634201E-1,7.011205554E-1
8.317052363E0,-6.308710575E-1,-1.507309973E-1,8.064948320E-1
8.327052363E0,-1.362382174E0,-2.982549667E-1,7.447974682E-1
8.337052363E0,-1.011134744E0,4.894557893E-1,6.861543655E-1
8.347052363E0,-8.055785298E-1,4.312708676E-1,5.267185569E-1
8.357052363E0,-6.562219858E-1,3.411682248E-1,2.695443034E-1
8.367052363E0,-6.284276247E-1,3.601050675E-1,2.428189293E-2
8.377052363E0,-7.929030657E-1,3.465133011E-1,-2.941316068E-1
8.387052363E0,-1.395216227E0,3.593414724E-1,-9.340129495E-1
8.397052363E0,-1.838398933E0,2.360994220E-1,-1.044885039E0
8.407052363E0,-2.326022148E0,3.115412779E-2,-1.101390004E0
8.417052363E0,-2.835789204E0,-1.751656085E-1,-1.173624873E0
8.427052363E0,-3.223536015E0,-4.300491214E-1,-1.290300131E0
8.437052363E0,-3.377626657E0,-1.202182770E0,-1.849699974E0
8.447052363E0,-3.335629702E0,-1.143234253E0,-2.240042925E0
8.457052363E0,-3.238196611E0,-8.697193861E-1,-2.718502998E0
8.467052363E0,-2.776687860E0,-1.445765376E0,-3.154508114E0
8.477052363E0,-2.348471403E0,-1.899790883E0,-3.536146164E0
8.487052363E0,-2.034944773E0,6.551529765E-1,-3.809966564E0
8.497052363E0,-1.713018894E0,2.236530304E0,-3.344181776E0
8.507052363E0,-1.540296674E0,3.008969545E0,-2.363743067E0
8.517052363E0,-1.480126500E0,3.063489199E0,-1.473559737E0
8.527052363E0,-1.449583173E0,2.420858860E0,-1.165683627E0
8.537052363E0,-1.747685432E0,7.087563872E-1,-9.876163602E-1
8.547052363E0,-1.857488513E0,2.055561543E-1,-8.875871897E-1
8.557052363E0,-1.762957096E0,-1.069014193E-3,-5.677992702E-1
8.567052363E0,-1.438434958E0,-1.695151068E-2,-1.447750628E-1
8.577052363E0,-9.743300676E-1,2.194533348E-1,-8.689557761E-2
8.587052363E0,-5.818491578E-1,5.740606189E-1,-4.581489265E-1
8.597052363E0,-3.833179548E-2,1.073901057E0,-1.852448881E-1
8.607052363E0,1.979203373E-1,5.816964507E-1,-3.695734590E-2
8.617052363E0,3.930917978E-1,2.470949888E-1,-1.258382350E-1
8.627052363E0,7.104362845E-1,5.224425197E-1,-2.591595948E-1
8.637052363E0,9.752463698E-1,5.629123449E-1,-1.861611903E-1
8.647052363E0,1.346652389E0,1.803579628E-1,1.163698286E-1
8.657052363E0,1.369254470E0,-8.048149943E-2,3.371976018E-1
8.667052363E0,1.417054653E0,-5.681046844E-2,5.862779021E-1
8.677052363E0,1.511433363E0,2.037235647E-1,8.730791807E-1
8.687052363E0,1.576337814E0,4.679227769E-1,1.105207920E0
8.697052363E0,1.502117634E0,7.588473558E-1,1.329089999E0
8.707052363E0,1.295645237E0,6.655376554E-1,1.376432061E0
8.717052363E0,1.119563222E0,4.883867502E-1,1.368490815E0
8.727052363E0,1.076650023E0,2.444988191E-1,1.279457211E0
8.737052363E0,1.084133148E0,-1.221730490E-3,1.158353209E0
8.747052363E0,8.526151776E-1,2.741257846E-1,7.964155674E-1
8.757052363E0,4.882340431E-1,1.013883591E0,4.213443100E-1
8.767052363E0,3.466660380E-1,1.809535623E0,-7.819075137E-2
8.777052363E0,4.251621962E-1,2.354732752E0,-5.174028873E-1
8.787052363E0,4.712825418E-1,2.613128901E0,-8.139779568E-1
8.797052363E0,5.511531830E-1,2.481487274E0,-1.002887964E0
8.807052363E0,5.610797405E-1,2.012037516E0,-1.008996725E0
8.817052363E0,5.522221923E-1,1.367116451E0,-1.029613376E0
8.827052363E0,6.542366743E-1,5.629123449E-1,-1.031598687E0
8.837052363E0,9.699012637E-1,-3.523165286E-1,-9.613491893E-1
8.847052363E0,-2.930625975E-1,1.446070790E0,-5.954409242E-1
8.857052363E0,-1.272585034E0,2.466063023E0,-1.098030284E-1
8.867052363E0,-1.793347597E0,2.275167704E0,3.344487250E-1
8.877052363E0,-1.944078684E0,1.608255506E0,9.085093141E-1
8.887052363E0,-1.956448674E0,7.506006956E-1,1.426523089E0
8.897052363E0,-1.846951127E0,-4.199698567E-2,1.754099607E0
8.907052363E0,-1.438587666E0,-7.535023093E-1,2.421011686E0
8.917052363E0,-1.277777433E0,-9.683741331E-1,2.590526819E0
8.927052363E0,-1.061072946E0,-1.133765936E0,2.564870358E0
8.937052363E0,-7.281513810E-1,-1.387885809E0,2.402991056E0
8.947052363E0,-3.016147017E-1,-1.785864592E0,2.079079866E0
8.957052363E0,4.686863720E-1,-2.002110958E0,1.278082848E0
8.967052363E0,7.542658448E-1,-1.176221013E0,1.040303469E0
8.977052363E0,1.101695418E0,6.551529467E-2,8.718574047E-1
8.987052363E0,1.623832583E0,1.035722017E0,7.431175709E-1
8.997052363E0,2.229352713E0,1.474170566E0,7.078400850E-1
9.007052363E0,3.195130587E0,1.744020224E0,6.282749176E-1
9.017052363E0,3.510947943E0,1.833970189E0,7.209737301E-1
9.027052363E0,3.824169159E0,1.930334210E0,7.721336484E-1
9.037052363E0,4.199698448E0,2.067015171E0,7.478517890E-1
9.047052363E0,4.535216331E0,2.027920008E0,7.324274182E-1
9.057052363E0,4.777271748E0,9.941831827E-1,6.007859707E-1
9.067052363E0,4.705647469E0,3.469714522E-1,4.434881806E-1
9.077052363E0,4.417624950E0,8.437576294E-1,2.672535479E-1
9.087052363E0,3.119383335E0,1.686293483E0,2.727513313E-1
9.097052363E0,1.178359032E0,1.456913590E0,3.773620129E-1
9.107052363E0,-1.688584208E0,-1.162171140E-1,4.520402849E-1
9.117052363E0,-2.133446932E0,-1.957823038E-1,4.181372523E-1
9.127052363E0,-1.696525455E0,3.772092983E-2,2.855795026E-1
9.137052363E0,-9.871582389E-1,7.408268452E-1,2.722931802E-1
9.147052363E0,-4.363104999E-1,9.975429177E-1,1.800525337E-1
9.157052363E0,-2.156354338E-1,1.017701507E0,-1.194241568E-1
9.167052363E0,-4.581489265E-1,9.476047158E-1,-3.475823104E-1
9.177052363E0,-8.280278444E-1,7.316638231E-1,-6.105598211E-1
9.187052363E0,-1.205847979E0,4.627304375E-1,-8.446739316E-1
9.197052363E0,-1.616502166E0,2.680171132E-1,-1.037860036E0
9.207052363E0,-2.115884542E0,1.151480973E-1,-1.212414742E0
9.217052363E0,-2.973539352E0,1.568396538E-1,-1.603826642E0
9.227052363E0,-3.202919245E0,1.163698286E-1,-1.853823304E0
9.237052363E0,-3.267823696E0,-3.543018550E-2,-2.235461473E0
9.247052363E0,-3.236058712E0,6.215553731E-2,-2.725680828E0
9.257052363E0,-3.129157305E0,3.747658134E-1,-3.192992687E0
9.267052363E0,-2.365881205E0,-6.502660513E-1,-3.853032589E0
9.277052363E0,-2.496758938E0,5.436700583E-1,-3.846313000E0
9.287052363E0,-2.258216143E0,1.775785327E0,-3.599676132E0
9.297052363E0,-1.678046823E0,2.327854633E0,-2.733316422E0
9.307052363E0,-1.574657917E0,2.704300404E0,-1.881770372E0
9.317052363E0,-1.918116927E0,2.035861254E0,-1.187827468E0
9.327052363E0,-2.167502642E0,1.038470864E0,-9.265298843E-1
9.337052363E0,-2.406045437E0,4.169155359E-1,-7.243334651E-1
9.347052363E0,-2.429869175E0,1.320996135E-1,-4.987714589E-1
9.357052363E0,-2.167044401E0,2.550362423E-2,-2.079996169E-1
9.367052363E0,-1.592525721E0,8.294022679E-1,-8.994990587E-2
9.377052363E0,-1.168585181E0,1.161407590E0,1.308778822E-1
9.387052363E0,-7.693848014E-1,1.032362223E0,3.162754774E-1
9.397052363E0,-4.086688459E-1,9.460775256E-1,2.406809032E-1
9.407052363E0,-1.188132912E-1,1.041067123E0,6.246097013E-2
9.417052363E0,1.603521220E-2,6.230825782E-1,3.042109013E-1
9.427052363E0,1.356120855E-1,3.515529633E-1,4.294382632E-1
9.437052363E0,3.685044646E-1,2.919935882E-1,5.826127529E-1
9.447052363E0,5.335907936E-1,3.585779071E-1,8.365799785E-1
9.457052363E0,5.670356750E-1,4.734205604E-1,1.182635069E0
9.467052363E0,5.174028873E-1,6.586654782E-1,1.512044191E0
9.477052363E0,3.706424832E-1,1.069319606E0,1.892918706E0
9.487052363E0,2.892446816E-1,1.226006508E0,1.979356170E0
9.497052363E0,1.785253733E-1,1.242194533E0,1.951561689E0
9.507052363E0,1.224784851E-1,1.195921421E0,1.765858650E0
9.517052363E0,2.029599845E-1,1.120021462E0,1.474781394E0
9.527052363E0,4.030183554E-1,7.362453341E-1,7.851145267E-1
9.537052363E0,3.436116874E-1,6.459900141E-1,3.585779071E-1
9.547052363E0,2.215913683E-1,7.796167731E-1,-8.720101416E-2
9.557052363E0,1.522581577E-1,1.369254470E0,-4.392121136E-1
9.567052363E0,9.376781434E-2,1.883755684E0,-7.000515461E-1
9.577052363E0,-3.084869385E-1,1.728748679E0,-7.429648638E-1
9.587052363E0,-6.365215778E-1,1.400866747E0,-6.525567770E-1
9.597052363E0,-9.117164016E-1,1.081231475E0,-5.865833759E-1
9.607052363E0,-1.021672130E0,9.253081083E-1,-5.445863605E-1
9.617052363E0,-9.615018964E-1,7.012733221E-1,-4.775438905E-1
9.627052363E0,-1.467603743E-1,-7.089090943E-1,-3.582724631E-1
9.637052363E0,-6.385068893E-1,1.456913650E-1,-2.612976134E-1
9.647052363E0,-1.167974353E0,2.115884542E0,1.634064503E-2
9.657052363E0,-1.233642340E0,2.873968363E0,4.502076805E-1
9.667052363E0,-1.041525245E0,1.593594670E0,9.289733171E-1
9.677052363E0,-4.285219610E-1,-7.559457421E-1,1.795485616E0
9.687052363E0,-3.530801237E-1,-1.359327912E0,1.998445630E0
9.697052363E0,-1.968513280E-1,-1.817324162E0,2.208125114E0
9.707052363E0,1.368338168E-1,-2.020131350E0,2.308917999E0
9.717052363E0,6.104071140E-1,-1.867720485E0,2.299144030E0
9.727052363E0,1.666898489E0,-1.270752430E0,2.002721786E0
9.737052363E0,2.084272146E0,-9.289733171E-1,1.776701570E0
9.747052363E0,2.403143883E0,-4.702135324E-1,1.480737329E0
9.757052363E0,2.643519402E0,-1.191187184E-2,1.125213742E0
9.767052363E0,2.755918503E0,2.481640130E-1,8.785769343E-1
9.777052363E0,2.767219543E0,1.098030284E-1,8.521569967E-1
9.787052363E0,3.025921106E0,-4.199698567E-1,7.365507483E-1
9.797052363E0,3.211013079E0,-3.967569768E-1,6.936374903E-1
9.807052363E0,3.173902988E0,-4.784601927E-1,7.628179789E-1
9.817052363E0,3.009885788E0,-5.207626224E-1,7.701483369E-1
9.827052363E0,2.904053450E0,-3.964515328E-1,6.708827615E-1
9.837052363E0,2.730873108E0,1.572978050E-1,3.995058835E-1
9.847052363E0,2.441781044E0,1.956295967E-1,2.281581759E-1
9.857052363E0,1.927432537E0,6.811147183E-2,7.452555746E-2
9.867052363E0,1.191187263E0,-8.429940045E-2,1.389718428E-2
9.877052363E0,4.120286107E-1,-2.477058619E-1,4.123340547E-2
9.887052363E0,-5.900958180E-1,-3.255911767E-1,1.682933718E-1
9.897052363E0,-7.050912380E-1,-3.161227703E-2,1.882992089E-1
9.907052363E0,-7.304421067E-1,2.768746614E-1,2.315179259E-1
9.917052363E0,-7.706065178E-1,3.536909819E-1,2.319760770E-1
9.927052363E0,-8.620835543E-1,2.915354371E-1,1.829541475E-1
9.937052363E0,-1.107651353E0,1.562287807E-1,-2.141082734E-1
9.947052363E0,-1.214552879E0,-6.688974798E-2,-4.140139222E-1
9.957052363E0,-1.381777167E0,-4.024074674E-1,-5.974262357E-1
9.967052363E0,-1.702786922E0,-5.888741016E-1,-7.956519723E-1
9.977052363E0,-2.158645153E0,-5.597052574E-1,-9.778425694E-1
9.987052363E0,-2.905580521E0,-8.863654733E-1,-1.287245750E0
9.997052363E0,-3.105180740E0,-1.165683627E0,-1.482417226E0
1.000705236E1,-3.215441942E0,-1.322217822E0,-1.776090741E0
1.001705236E1,-3.262478590E0,-1.196837783E0,-2.162310362E0
1.002705236E1,-3.335629702E0,-7.009678483E-1,-2.608852863E0
1.003705236E1,-2.580752850E0,-1.078788042E0,-3.497203588E0
1.004705236E1,-2.490803003E0,-8.936958313E-1,-3.740480661E0
1.005705236E1,-2.529440165E0,9.540187716E-1,-3.864791632E0
1.006705236E1,-2.058615923E0,2.834262133E0,-3.738342524E0
1.007705236E1,-1.247386813E0,3.695734739E0,-3.135724068E0
1.008705236E1,-8.857545853E-1,3.909232140E0,-2.230574369E0
1.009705236E1,-1.490358472E0,2.440559387E0,-1.262047648E0
1.010705236E1,-1.748601794E0,8.097018600E-1,-8.234463334E-1
1.011705236E1,-1.884519339E0,-4.520402849E-1,-4.112650156E-1
1.012705236E1,-1.836108208E0,-1.266629100E0,1.832595794E-3
1.013705236E1,-1.611157060E0,-1.391703725E0,2.386955917E-1
1.014705236E1,-9.137017131E-1,-6.582073122E-2,-2.533563673E-1
1.015705236E1,-6.101016402E-1,2.637410760E-1,-2.993239649E-2
1.016705236E1,-3.785837293E-1,4.337143302E-1,2.831360400E-1
1.017705236E1,-3.031418920E-1,3.923282027E-1,3.706424832E-1
1.018705236E1,-2.667953968E-1,2.147191316E-1,4.184426963E-1
1.019705236E1,2.272418737E-1,5.971207842E-2,4.045455158E-1
1.020705236E1,5.641340613E-1,2.000583708E-2,4.854851663E-1
1.021705236E1,7.447974682E-1,-2.069306076E-1,6.464481354E-1
1.022705236E1,7.764097452E-1,-3.988949955E-1,8.600982428E-1
1.023705236E1,7.324274182E-1,-4.056145251E-1,1.082453251E0
1.024705236E1,6.392704844E-1,-4.642575979E-2,1.552055836E0
1.025705236E1,4.963280261E-1,1.206458826E-2,1.775938034E0
1.026705236E1,3.141374588E-1,-5.192354694E-2,1.915215254E0
1.027705236E1,1.298088580E-1,-2.528982162E-1,1.970498562E0
1.028705236E1,-5.955935922E-3,-4.182899892E-1,1.891696930E0
1.029705236E1,-1.295034289E-1,-8.338310719E-1,1.420872569E0
1.030705236E1,-1.765400618E-1,-9.309586287E-1,1.138500094E0
1.031705236E1,-3.827070892E-1,-7.365507483E-1,8.237518072E-1
1.032705236E1,-6.821837425E-1,-3.107776940E-1,3.869831264E-1
1.033705236E1,-6.904304624E-1,8.170322329E-2,-7.727445662E-2
1.034705236E1,-4.752531648E-1,3.474296033E-1,-6.939429045E-1
1.035705236E1,-5.276348591E-1,1.777617931E-1,-9.364564419E-1
1.036705236E1,-6.020076871E-1,-1.018617824E-1,-1.079398870E0
1.037705236E1,-6.711881757E-1,-4.013384581E-1,-1.149190187E0
1.038705236E1,-7.151705027E-1,-6.482807398E-1,-1.155451655E0
1.039705236E1,-6.789767146E-1,-8.126034737E-1,-1.075733662E0
1.040705236E1,-4.286746979E-1,-6.814202070E-1,-9.925032854E-1
1.041705236E1,-3.022255898E-1,-2.206750661E-1,-9.242390990E-1
1.042705236E1,-4.340197444E-1,8.484918475E-1,-7.877107263E-1
1.043705236E1,-1.141554475E0,1.105666041E0,-5.934556127E-1
1.044705236E1,-1.395827055E0,6.907358766E-1,-1.264491081E-1
1.045705236E1,9.819658846E-2,-1.222799540E0,1.496619821E0
1.046705236E1,4.318817258E-1,-2.058463097E0,2.065335512E0
1.047705236E1,6.614143252E-1,-2.377334833E0,2.336712360E0
1.048705236E1,9.178250432E-1,-2.475378752E0,2.393064499E0
1.049705236E1,1.221883178E0,-2.769510269E0,2.322662354E0
1.050705236E1,1.800525308E0,-2.851671696E0,1.714393258E0
1.051705236E1,1.891544223E0,-2.208277941E0,1.267239928E0
1.052705236E1,1.911244631E0,-1.554652095E0,8.410087228E-1
1.053705236E1,1.911244631E0,-1.017090678E0,5.167919993E-1
1.054705236E1,1.938733578E0,-6.209445000E-1,3.258966208E-1
1.055705236E1,2.248136759E0,-7.278459668E-1,3.333797157E-1
1.056705236E1,2.380083799E0,-7.800748944E-1,4.952589869E-1
1.057705236E1,2.420095444E0,-8.306240439E-1,6.450737119E-1
1.058705236E1,2.335490465E0,-1.061683774E0,7.904596329E-1
1.059705236E1,2.165364504E0,-1.326646566E0,9.224064946E-1
1.060705236E1,1.843591332E0,-1.314581990E0,9.743300676E-1
1.061705236E1,1.611004353E0,-1.158047795E0,1.004873276E0
1.062705236E1,1.253495455E0,-1.026711702E0,9.500481486E-1
1.063705236E1,7.455610037E-1,-9.538660645E-1,7.168503404E-1
1.064705236E1,1.537853181E-1,-9.712757468E-1,4.552473128E-1
1.065705236E1,-3.498730659E-1,-1.070541382E0,3.347541690E-1
1.066705236E1,-8.145887852E-1,-1.350623012E0,3.865249753E-1
1.067705236E1,-8.758280277E-1,-1.360396862E0,4.940372705E-1
1.068705236E1,-1.073137522E0,-1.380249977E0,5.833762884E-1
1.069705236E1,-1.405448198E0,-1.431715369E0,5.641340613E-1
1.070705236E1,-1.769371152E0,-1.502728462E0,4.764748812E-1
1.071705236E1,-2.223243952E0,-1.782810211E0,1.253800988E-1
1.072705236E1,-2.303420067E0,-1.982563138E0,-4.642575979E-2
1.073705236E1,-2.338544846E0,-2.271197081E0,-2.359467000E-1
1.074705236E1,-2.360841513E0,-2.605034828E0,-4.463897645E-1
1.075705236E1,-2.402074814E0,-2.882825851E0,-6.126978397E-1
1.076705236E1,-2.479349375E0,-3.142901659E0,-9.618073106E-1
1.077705236E1,-2.460107088E0,-3.223841429E0,-1.140485406E0
1.078705236E1,-2.413834095E0,-3.435506105E0,-1.329700947E0
1.079705236E1,-2.373364210E0,-3.668092966E0,-1.544725537E0
1.080705236E1,-2.326938391E0,-3.775300026E0,-1.785864592E0
1.081705236E1,-2.385123253E0,-3.538284302E0,-2.405892849E0
1.082705236E1,-2.364201307E0,-3.107471466E0,-2.688112497E0
1.083705236E1,-1.904677868E0,-2.365117550E0,-2.968041420E0
1.084705236E1,-1.103680730E0,-1.056033254E0,-3.106555223E0
1.085705236E1,-5.914703012E-1,5.128213763E-1,-2.879160643E0
1.086705236E1,-1.847867370E-1,8.662069440E-1,-2.356718063E0
1.087705236E1,-6.012440920E-1,-2.478585690E-1,-2.366950035E0
1.088705236E1,-8.417723179E-1,-1.263727427E0,-2.060601234E0
1.089705236E1,-8.600982428E-1,-1.806328535E0,-1.737606168E0
1.090705236E1,-7.735081315E-1,-2.075720072E0,-1.398576021E0
1.091705236E1,-3.116939962E-1,-2.625957012E0,-9.653198123E-1
1.092705236E1,-6.597344577E-2,-2.531730890E0,-8.991936445E-1
1.093705236E1,1.988366395E-1,-2.361757755E0,-7.363980412E-1
1.094705236E1,4.274529517E-1,-2.270738840E0,-5.433646441E-1
1.095705236E1,6.029239893E-1,-2.253329277E0,-4.679227769E-1
1.096705236E1,6.748533845E-1,-2.310445070E0,-3.975205719E-1
1.097705236E1,8.277224302E-1,-2.472324371E0,-3.119994104E-1
1.098705236E1,1.012661815E0,-2.212553978E0,-3.475823104E-1
1.099705236E1,1.134376764E0,-2.118327856E0,-3.155119121E-1
1.100705236E1,1.136514783E0,-2.304947376E0,-2.652682364E-1
1.101705236E1,1.085965633E0,-2.629469395E0,-1.997529417E-1
1.102705236E1,1.039387226E0,-2.955060720E0,6.352998316E-2
1.103705236E1,9.546296597E-1,-3.051271915E0,2.156354338E-1
1.104705236E1,8.445212245E-1,-3.196352482E0,2.834414840E-1
1.105705236E1,6.783658266E-1,-3.386026144E0,3.364340365E-1
1.106705236E1,4.778493345E-1,-3.569896460E0,3.675881624E-1
1.107705236E1,2.307543457E-1,-4.099058628E0,4.396702647E-1
1.108705236E1,2.863430977E-1,-4.255440235E0,4.544837475E-1
1.109705236E1,3.943135142E-1,-4.237877846E0,3.970624208E-1
1.110705236E1,4.573853612E-1,-3.961766481E0,2.556470931E-1
1.111705236E1,4.173736870E-1,-3.444974661E0,6.307183951E-2
1.112705236E1,-1.359175146E-2,-2.246304274E0,-5.157229900E-1
1.113705236E1,-2.272418737E-1,-1.927890658E0,-8.883507848E-1
1.114705236E1,-3.400992155E-1,-1.832137585E0,-1.126893640E0
1.115705236E1,-3.527746797E-1,-2.035097599E0,-1.266018271E0
1.116705236E1,-2.851213515E-1,-2.503325701E0,-1.356578946E0
1.117705236E1,-8.261952549E-2,-3.741396904E0,-1.428202987E0
1.118705236E1,-1.835650057E-1,-4.392426491E0,-1.388802171E0
1.119705236E1,-4.173736870E-1,-4.899291992E0,-1.338558435E0
1.120705236E1,-5.141957998E-1,-5.145165443E0,-1.388649464E0
1.121705236E1,-6.957755089E-1,-4.486499786E0,-1.376279354E0
1.122705236E1,-1.336420417E0,-2.796693802E0,-1.179275393E0
1.123705236E1,-1.143387079E0,-2.705064058E0,-9.813550115E-1
1.124705236E1,-5.073235631E-1,-2.916728735E0,-6.551529765E-1
1.125705236E1,3.358231783E-1,-3.098461151E0,-4.683809280E-1
1.126705236E1,9.758572578E-1,-3.020270586E0,-4.824308157E-1
1.127705236E1,1.383915186E0,-3.047148466E0,-3.222314119E-1
1.128705236E1,1.921934724E0,-2.914896250E0,3.100140989E-1
1.129705236E1,1.867415071E0,-2.403143883E0,5.667302608E-1
1.130705236E1,1.586875200E0,-2.351067543E0,5.601634383E-1
1.131705236E1,1.450194120E0,-2.776840687E0,3.433062732E-1
1.132705236E1,1.418429136E0,-2.905580521E0,2.816088796E-1
1.133705236E1,1.594205618E0,-2.804635048E0,3.391829133E-1
1.134705236E1,1.645671010E0,-2.795472145E0,3.379611969E-1
1.135705236E1,1.628108621E0,-2.761416435E0,3.491095006E-1
1.136705236E1,1.556179166E0,-2.696053743E0,3.544545472E-1
1.137705236E1,1.443627238E0,-2.629774809E0,3.367394805E-1
1.138705236E1,1.072679400E0,-2.052201748E0,2.367102802E-1
1.139705236E1,9.335548282E-1,-1.671174645E0,2.218967974E-1
1.140705236E1,9.159924388E-1,-1.526857734E0,2.544253767E-1
1.141705236E1,9.414960742E-1,-1.615127683E0,3.016147017E-1
1.142705236E1,8.626944423E-1,-1.706604719E0,2.889392674E-1
1.143705236E1,1.078177169E-1,-1.516167521E0,3.985895589E-2
1.144705236E1,-3.805690408E-1,-1.429119229E0,-6.383541971E-2
1.145705236E1,-7.344127297E-1,-1.305266261E0,-1.004873365E-1
1.146705236E1,-9.363036752E-1,-1.131169677E0,-6.123924255E-2
1.147705236E1,-1.066570759E0,-1.004415154E0,1.649336144E-2
1.148705236E1,-1.612531543E0,-9.246972799E-1,4.474587739E-2
1.149705236E1,-1.960113883E0,-9.210320711E-1,7.483099122E-3
1.150705236E1,-2.204918146E0,-9.969320893E-1,-6.078109145E-2
1.151705236E1,-2.339766502E0,-1.130558848E0,-1.211040318E-1
1.152705236E1,-2.415361166E0,-1.301601171E0,-1.475239545E-1
1.153705236E1,-2.412917614E0,-1.518305540E0,-1.951714456E-1
1.154705236E1,-2.314415693E0,-2.348624229E0,-3.767511547E-1
1.155705236E1,-2.240653753E0,-2.827389717E0,-5.674937963E-1
1.156705236E1,-2.126269102E0,-3.310431480E0,-7.790058851E-1
1.157705236E1,-1.998598337E0,-3.761708260E0,-9.294314981E-1
1.158705236E1,-2.025781870E0,-4.096004009E0,-1.069014192E0
1.159705236E1,-2.228436470E0,-4.678311348E0,-1.479668379E0
1.160705236E1,-2.275167704E0,-4.569577694E0,-1.714546084E0
1.161705236E1,-2.216830015E0,-3.758653879E0,-2.126574516E0
1.162705236E1,-1.517389297E0,-2.622750044E0,-2.629622221E0
1.163705236E1,-6.640105247E-1,-1.727985024E0,-2.871524811E0
1.164705236E1,-2.269364446E-1,7.040221989E-2,-3.075095654E0
1.165705236E1,-4.575380683E-1,-2.930625975E-1,-2.992476225E0
1.166705236E1,-8.562803864E-1,-1.207985997E0,-2.848922729E0
1.167705236E1,-1.073442936E0,-1.779603124E0,-2.562274218E0
1.168705236E1,-1.046259403E0,-1.880243182E0,-2.262644768E0
1.169705236E1,-6.220135093E-1,-1.468520045E0,-1.835039139E0
1.170705236E1,-3.480404615E-1,-1.355357289E0,-1.558928132E0
1.171705236E1,-2.336559631E-2,-1.274264932E0,-1.179428101E0
1.172705236E1,2.684752643E-1,-1.218676209E0,-8.842274547E-1
1.173705236E1,4.903720617E-1,-1.176221013E0,-8.061894178E-1
1.174705236E1,7.796167731E-1,-1.132391453E0,-8.468119502E-1
1.175705236E1,8.697193861E-1,-1.174693823E0,-7.544185519E-1
1.176705236E1,9.740246534E-1,-1.276861072E0,-7.026477456E-1
1.177705236E1,1.117577910E0,-1.270599723E0,-6.624833345E-1
1.178705236E1,1.292285442E0,-1.299157619E0,-6.885978580E-1
1.179705236E1,1.658193707E0,-1.526094079E0,-6.075055003E-1
1.180705236E1,1.724625349E0,-1.750434399E0,-4.598288238E-1
1.181705236E1,1.710575461E0,-1.917200565E0,-2.605340183E-1
1.182705236E1,1.647961736E0,-1.899485469E0,-4.917465150E-2
1.183705236E1,1.551292300E0,-1.700648785E0,1.608102769E-1
1.184705236E1,1.438282251E0,-1.456760883E0,3.747658134E-1
1.185705236E1,1.149190187E0,-1.487915039E0,7.693848014E-1
1.186705236E1,1.059240341E0,-1.675756097E0,8.515461683E-1
1.187705236E1,1.011745572E0,-1.831832170E0,8.326093554E-1
1.188705236E1,9.605855942E-1,-1.988824487E0,7.402159572E-1
1.189705236E1,8.910996914E-1,-2.150703907E0,6.076582074E-1
1.190705236E1,9.502009153E-1,-2.300976753E0,1.989893466E-1
1.191705236E1,9.532552361E-1,-2.034792185E0,-5.115996301E-2
1.192705236E1,9.040805697E-1,-1.484555244E0,-3.092505336E-1
1.193705236E1,8.269588351E-1,-8.439103365E-1,-5.890268087E-1
1.194705236E1,7.620543838E-1,-1.887573600E-1,-8.063421249E-1
1.195705236E1,7.506006956E-1,8.374962807E-1,-1.071763039E0
1.196705236E1,7.380779386E-1,9.824240208E-1,-1.135751247E0
1.197705236E1,6.672175527E-1,8.263479471E-1,-1.204779029E0
1.198705236E1,5.453499556E-1,3.904955983E-1,-1.325272202E0
1.199705236E1,3.445279896E-1,-1.137736514E-1,-1.450957656E0
1.200705236E1,-1.603521220E-2,-2.175749302E0,-1.319774389E0
1.201705236E1,-7.938193679E-1,-2.107790470E0,-9.799805880E-1
1.202705236E1,-1.610851645E0,-1.449735999E0,-3.524692357E-1
1.203705236E1,-1.789224267E0,-1.022588372E0,5.230533481E-1
1.204705236E1,-1.303280950E0,-8.471173644E-1,1.233642340E0
1.205705236E1,-7.562511563E-1,-2.160019398E0,9.815077186E-1
1.206705236E1,-6.070473194E-1,-2.226145744E0,1.044426799E0
1.207705236E1,-4.547891617E-1,-2.092824221E0,1.198670268E0
1.208705236E1,-2.741257846E-1,-2.224923849E0,1.279457211E0
1.209705236E1,-1.252273750E-2,-2.451707602E0,1.349859476E0
1.210705236E1,7.594582438E-1,-2.645504713E0,1.352302909E0
1.211705236E1,1.100931883E0,-2.223702192E0,1.162323833E0
1.212705236E1,1.400255799E0,-1.528079391E0,1.006858587E0
1.213705236E1,1.698205352E0,-1.044579625E0,8.611672521E-1
1.214705236E1,1.969276786E0,-8.138252497E-1,6.824892163E-1
1.215705236E1,2.182926893E0,-8.155050874E-1,5.222898126E-1
1.216705236E1,2.721404552E0,3.459024429E-1,2.138028294E-1
1.217705236E1,2.926197290E0,9.221010804E-1,1.860084683E-1
1.218705236E1,3.126713753E0,1.127351761E0,2.612976134E-1
1.219705236E1,3.184135199E0,1.150870085E0,3.320052624E-1
1.220705236E1,3.129462719E0,1.098641157E0,3.489567637E-1
1.221705236E1,3.174666643E0,9.091202021E-1,5.774203539E-1
1.222705236E1,3.162907600E0,9.778425694E-1,7.608326674E-1
1.223705236E1,2.771342993E0,1.210734963E0,8.701775670E-1
1.224705236E1,1.886504650E0,1.388649464E0,8.495608568E-1
1.225705236E1,9.191994667E-1,1.133765936E0,6.716463566E-1
1.226705236E1,-3.970624134E-2,1.359022498E0,5.755877495E-1
1.227705236E1,-1.664607823E-1,1.504408360E0,6.375905871E-1
1.228705236E1,-3.210096955E-1,1.374141335E0,6.090326309E-1
1.229705236E1,-5.225952268E-1,1.158811331E0,5.447390676E-1
1.230705236E1,-7.009678483E-1,8.558222055E-1,4.616613984E-1
1.231705236E1,-1.070541382E0,3.738495409E-1,-3.711006418E-2
1.232705236E1,-1.198975801E0,3.054326177E-1,-3.339905739E-1
1.233705236E1,-1.300990224E0,1.942551434E-1,-5.919284225E-1
1.234705236E1,-1.433547974E0,5.299255997E-2,-8.158105612E-1
1.235705236E1,-1.683697343E0,-9.468411654E-2,-9.798278809E-1
1.236705236E1,-2.549751520E0,-2.964223623E-1,-1.263880134E0
1.237705236E1,-2.971554041E0,-5.739079118E-1,-1.373225093E0
1.238705236E1,-3.274848461E0,-1.032056808E0,-1.387427688E0
1.239705236E1,-3.438713074E0,-1.541518450E0,-1.370323420E0
1.240705236E1,-3.467118502E0,-1.862833619E0,-1.403768301E0
1.241705236E1,-3.404810190E0,-1.842980504E0,-1.540449381E0
1.242705236E1,-3.416263819E0,-1.085660219E0,-2.597246408E0
1.243705236E1,-2.755002260E0,-1.417512774E0,-3.325397730E0
1.244705236E1,-2.217135429E0,-1.221272349E0,-3.613267899E0
1.245705236E1,-1.995696783E0,2.104430795E-1,-3.571881771E0
1.246705236E1,-1.485624313E0,1.426981211E0,-3.276833773E0
1.247705236E1,-1.451263070E0,1.688584208E0,-2.616335869E0
1.248705236E1,-1.807397485E0,1.826334357E0,-2.326785803E0
1.249705236E1,-1.915520668E0,1.631773829E0,-1.951714516E0
1.250705236E1,-1.752114296E0,9.737191796E-1,-1.440267563E0
1.251705236E1,-1.481195450E0,1.498146951E-1,-9.117164016E-1
1.252705236E1,-7.706065178E-1,6.429356337E-2,-8.584184051E-1
1.253705236E1,-4.007275999E-1,3.623957932E-1,-1.035722017E0
1.254705236E1,9.483683109E-2,2.819143236E-1,-1.229977131E0
1.255705236E1,4.486805201E-1,1.611157060E-1,-1.062752843E0
1.256705236E1,6.478226185E-1,-6.505715102E-2,-5.783366561E-1
1.257705236E1,1.143387079E0,-1.178969890E-1,-2.266310006E-1
1.258705236E1,1.299768567E0,-1.492038369E-1,-2.209804952E-1
1.259705236E1,1.488067746E0,-7.635815442E-2,-1.782199293E-1
1.260705236E1,1.607186437E0,-7.223481685E-2,-2.458732575E-2
1.261705236E1,1.625665188E0,-2.950479090E-1,1.719585657E-1
1.262705236E1,1.535715222E0,-6.921103001E-1,6.388123035E-1
1.263705236E1,1.528384805E0,-5.600107312E-1,9.092729092E-1
1.264705236E1,1.540143967E0,-1.640173197E-1,1.140943527E0
1.265705236E1,1.438434958E0,2.835941911E-1,1.358258843E0
1.266705236E1,1.233947754E0,7.067710757E-1,1.553888440E0
1.267705236E1,6.969972253E-1,7.487680912E-1,1.772272825E0
1.268705236E1,5.032002330E-1,5.051855445E-1,1.750587106E0
1.269705236E1,3.860668242E-1,2.124283910E-1,1.691791296E0
1.270705236E1,3.066543639E-1,-1.779145002E-1,1.605659246E0
1.271705236E1,2.501493096E-1,-5.135849714E-1,1.470810771E0
1.272705236E1,2.223549485E-1,-6.809620261E-1,1.288162112E0
1.273705236E1,3.805690408E-1,-5.899431109E-1,6.803511381E-1
1.274705236E1,4.608978331E-1,9.926560335E-3,1.243110746E-1
1.275705236E1,4.175263941E-1,1.023962855E0,-4.256203473E-1
1.276705236E1,4.644103050E-1,1.781588435E0,-7.707592249E-1
1.277705236E1,5.493205786E-1,2.088701010E0,-9.378308654E-1
1.278705236E1,6.313292384E-1,2.103972673E0,-1.094059706E0
1.279705236E1,8.365799785E-1,1.634369969E0,-1.122617602E0
1.280705236E1,1.282206178E0,6.215553880E-1,-1.067792416E0
1.281705236E1,7.154759169E-1,4.605923891E-1,-1.054200649E0
1.282705236E1,-4.488332272E-1,8.434522152E-1,-1.002582550E0
1.283705236E1,-9.305005074E-1,1.269225240E0,-3.741549700E-2
1.284705236E1,-1.050535560E0,8.290968537E-1,6.036875844E-1
1.285705236E1,-1.227533698E0,-2.612976134E-1,9.998337030E-1
1.286705236E1,-1.204931736E0,-1.751197934E0,1.300684810E0
1.287705236E1,-1.155604362E0,-2.779895067E0,1.651474237E0
1.288705236E1,-9.624181986E-1,-3.565467834E0,2.196366072E0
1.289705236E1,-6.849326491E-1,-3.565315008E0,2.297158718E0
1.290705236E1,-2.017382532E-1,-3.406490088E0,2.233781576E0
1.291705236E1,3.376557529E-1,-3.003013611E0,1.981035948E0
1.292705236E1,7.000515461E-1,-2.363132238E0,1.606575608E0
1.293705236E1,1.135140300E0,-1.207985997E0,9.053022861E-1
1.294705236E1,1.463785887E0,-9.563095570E-1,5.910121202E-1
1.295705236E1,1.927127123E0,-7.988590002E-1,3.323107064E-1
1.296705236E1,2.451096773E0,-6.553056836E-1,2.516764700E-1
1.297705236E1,2.910161972E0,-6.421720982E-1,3.387247920E-1
1.298705236E1,3.427259445E0,1.287398487E-1,3.200933933E-1
1.299705236E1,3.401603222E0,3.445279896E-1,2.626720667E-1
1.300705236E1,3.375641346E0,3.507893682E-1,1.931861341E-1
1.301705236E1,3.459788084E0,6.856962293E-2,1.951714456E-1
1.302705236E1,3.629150391E0,-3.810271919E-1,2.376265824E-1
1.303705236E1,3.737273455E0,-7.218900323E-1,2.503020465E-1
1.304705236E1,3.708868265E0,-2.527455091E-1,2.651155293E-1
1.305705236E1,2.908787489E0,8.510879874E-1,5.604688525E-1
1.306705236E1,1.350775719E0,1.094059706E0,9.538660645E-1
1.307705236E1,-1.934915632E-1,5.166392922E-1,1.157284260E0
1.308705236E1,-1.239292860E0,4.978551716E-2,1.231046200E0
1.309705236E1,-1.567938328E0,1.180497110E-1,1.103833556E0
1.310705236E1,-1.245706916E0,1.698205322E-1,1.031445980E0
1.311705236E1,-8.474228382E-1,1.053742506E-2,9.176723361E-1
1.312705236E1,-5.436700583E-1,-5.574145541E-2,6.652322412E-1
1.313705236E1,-3.639229834E-1,1.072068512E-1,3.764457107E-1
1.314705236E1,-7.050912380E-1,7.426594496E-1,-1.456913650E-1
1.315705236E1,-1.280526280E0,9.239336848E-1,-3.940080702E-1
1.316705236E1,-1.846798301E0,9.170614481E-1,-6.994407177E-1
1.317705236E1,-2.307543516E0,7.041749358E-1,-1.038012743E0
1.318705236E1,-2.733927488E0,1.656972021E-1,-1.184162259E0
1.319705236E1,-3.422372580E0,-1.238223910E0,-1.410335183E0
1.320705236E1,-3.618002176E0,-1.784795523E0,-1.630093932E0
1.321705236E1,-3.784615517E0,-2.061975718E0,-1.946369410E0
1.322705236E1,-3.981314182E0,-1.830457687E0,-2.302503824E0
1.323705236E1,-3.846160412E0,-1.190270901E0,-2.734996319E0
1.324705236E1,-2.160172224E0,-1.845729351E0,-3.838982582E0
1.325705236E1,-2.174680233E0,-8.437576294E-1,-3.932445049E0
1.326705236E1,-2.197129488E0,1.109178543E0,-3.754683256E0
1.327705236E1,-1.649183393E0,2.141846180E0,-3.169016123E0
1.328705236E1,-1.428202987E0,2.305558205E0,-2.205223560E0
1.329705236E1,-1.445765376E0,2.495079041E0,-1.493718266E0
1.330705236E1,-1.776243448E0,1.184314966E0,-1.009454846E0
1.331705236E1,-1.975538254E0,2.255619913E-1,-7.420485616E-1
1.332705236E1,-1.965917110E0,-2.987131178E-1,-3.614795208E-1
1.333705236E1,-1.735162735E0,-3.875939846E-1,-1.695151068E-2
1.334705236E1,-1.163087368E0,-2.527455091E-1,2.525927722E-1
1.335705236E1,-2.345722616E-1,3.836233616E-1,-1.288925707E-1
1.336705236E1,-5.009094998E-2,9.112582207E-1,-2.643519342E-1
1.337705236E1,2.151772827E-1,1.247844934E0,-9.941831976E-2
1.338705236E1,3.683517575E-1,8.379544020E-1,6.658431143E-2
1.339705236E1,5.175555944E-1,4.382958114E-1,1.447750628E-1
1.340705236E1,1.016785145E0,3.721696436E-1,2.886338346E-2
1.341705236E1,1.146746755E0,1.705841124E-1,1.618792862E-1
1.342705236E1,1.185842156E0,-3.008511290E-2,3.938553631E-1
1.343705236E1,1.216079950E0,-2.038762718E-1,6.065891981E-1
1.344705236E1,1.325272202E0,-1.838704348E-1,7.528914213E-1
1.345705236E1,1.440725684E0,2.935207486E-1,1.120326877E0
1.346705236E1,1.419803500E0,6.453791261E-1,1.305419087E0
1.347705236E1,1.294881582E0,8.552113175E-1,1.449583173E0
1.348705236E1,1.077566266E0,8.536841869E-1,1.503644824E0
1.349705236E1,8.411614299E-1,7.913759351E-1,1.448819637E0
1.350705236E1,5.517640114E-1,6.293439269E-1,1.123686671E0
1.351705236E1,5.937610269E-1,3.759875596E-1,9.109528065E-1
1.352705236E1,5.684100986E-1,8.918632567E-2,6.275113225E-1
1.353705236E1,3.263547719E-1,-3.573561832E-2,1.365283877E-1
1.354705236E1,-1.536326110E-1,2.646573782E-1,-3.921754956E-1
1.355705236E1,-1.996002197E-1,1.180802464E0,-9.694431424E-1
1.356705236E1,-8.368854225E-2,1.355204582E0,-1.023657441E0
1.357705236E1,-1.985311974E-3,1.408197165E0,-1.124755621E0
1.358705236E1,7.299839705E-2,1.382540822E0,-1.210582256E0
1.359705236E1,1.704314053E-1,1.236696720E0,-1.257924199E0
1.360705236E1,3.801108897E-1,7.990117669E-1,-1.264185667E0
1.361705236E1,7.832819819E-1,-6.966918111E-1,-1.128878951E0
1.362705236E1,9.193521738E-2,8.857546374E-3,-8.712465763E-1
1.363705236E1,-7.527387142E-1,1.280373573E0,-1.536326110E-1
1.364705236E1,-1.449125051E0,1.683086514E0,5.552765131E-1
1.365705236E1,-1.716073155E0,1.212720275E0,1.266170979E0
1.366705236E1,-1.226922870E0,-1.383915186E0,2.031432390E0
1.367705236E1,-8.892670870E-1,-2.397951603E0,2.056019783E0
1.368705236E1,-6.658431292E-1,-2.608089209E0,2.381610870E0
1.369705236E1,-4.448626041E-1,-2.587930679E0,2.719572067E0
1.370705236E1,-3.145956099E-1,-2.589457750E0,2.801122665E0
1.371705236E1,4.969388843E-1,-2.047314882E0,2.397340536E0
1.372705236E1,9.098837972E-1,-1.758833766E0,2.059990406E0
1.373705236E1,1.208749652E0,-1.273806810E0,1.629941225E0
1.374705236E1,1.495550871E0,-5.705481172E-1,1.185231328E0
1.375705236E1,1.803121448E0,-9.071348608E-2,8.368853927E-1
1.376705236E1,2.392453671E0,4.780020416E-1,7.058547735E-1
1.377705236E1,2.630843878E0,6.777549982E-1,7.480044961E-1
1.378705236E1,2.902984381E0,6.024658680E-1,7.250970602E-1
1.379705236E1,3.120604992E0,5.746715069E-1,6.427829266E-1
1.380705236E1,3.270877838E0,9.705121517E-1,5.372560024E-1
1.381705236E1,3.271794319E0,1.452942967E0,4.324925840E-1
1.382705236E1,3.281873465E0,1.199281216E0,4.274529517E-1
1.383705236E1,3.409238815E0,9.950994849E-1,3.576616049E-1
1.384705236E1,3.496287346E0,8.936958313E-1,2.434297949E-1
1.385705236E1,3.458719015E0,7.322747111E-1,1.133155003E-1
1.386705236E1,2.983313084E0,1.085202098E0,6.352998316E-2
1.387705236E1,2.018146038E0,1.446834326E0,3.368921876E-1
1.388705236E1,6.873761415E-1,1.234405994E0,6.322455406E-1
1.389705236E1,-5.461135507E-1,6.407976151E-1,8.350527883E-1
1.390705236E1,-1.325577617E0,2.825251818E-1,8.918632865E-1
1.391705236E1,-1.622152686E0,2.313652188E-1,8.846855760E-1
1.392705236E1,-1.200197458E0,1.409571618E-1,5.868887901E-1
1.393705236E1,-8.329147696E-1,2.304489166E-1,4.390594065E-1
1.394705236E1,-5.732970238E-1,3.875939846E-1,2.477058619E-1
1.395705236E1,-4.134030640E-1,4.654793143E-1,2.443460934E-2
1.396705236E1,-4.043927789E-1,5.204572082E-1,-1.644754708E-1
1.397705236E1,-1.193783402E0,8.324565887E-1,-5.215262175E-1
1.398705236E1,-1.857488513E0,9.920451641E-1,-7.820602059E-1
1.399705236E1,-2.503936529E0,8.162686825E-1,-1.088256478E0
1.400705236E1,-3.058296919E0,4.002694488E-1,-1.255633473E0
1.401705236E1,-3.494149208E0,-5.115996301E-2,-1.407433510E0
1.402705236E1,-3.764304399E0,-6.647741199E-1,-2.269669771E0
1.403705236E1,-3.635564566E0,-4.599815309E-1,-2.893821478E0
1.404705236E1,-3.160922289E0,-3.500257730E-1,-3.647323608E0
1.405705236E1,-2.419484615E0,-1.399492264E0,-4.359898090E0
1.406705236E1,-2.198045969E0,-1.325883031E0,-4.363563061E0
1.407705236E1,-2.308306932E0,1.162781954E0,-3.903123379E0
1.408705236E1,-1.864207983E0,1.910939217E0,-3.307835340E0
1.409705236E1,-1.590693116E0,2.566092253E0,-2.407419920E0
1.410705236E1,-1.406975389E0,2.986672878E0,-1.623068929E0
1.411705236E1,-1.375668526E0,2.396271706E0,-1.217301726E0
1.412705236E1,-1.565647602E0,1.328631863E-2,-7.609853745E-1
1.413705236E1,-1.496772528E0,-3.123048544E-1,-5.015203953E-1
1.414705236E1,-1.274875760E0,8.353582025E-2,-4.077525437E-2
1.415705236E1,-8.695666790E-1,3.104722500E-1,2.930625975E-1
1.416705236E1,-4.280638099E-1,4.610505402E-1,1.221730486E-1
1.417705236E1,7.513642311E-2,6.817256212E-1,-2.107485086E-1
1.418705236E1,4.958698750E-1,6.009386778E-1,-4.818199575E-1
1.419705236E1,4.673119187E-1,5.818491429E-2,-3.955352604E-1
1.420705236E1,5.426010489E-1,-1.992947906E-1,-4.457789063E-1
1.421705236E1,7.163922191E-1,-1.484402567E-1,-4.178318381E-1
1.422705236E1,8.764389157E-1,-1.817324162E-1,-2.997821271E-1
1.423705236E1,1.040456176E0,-5.650503635E-1,1.702786833E-1
1.424705236E1,1.051909924E0,-6.951646209E-1,4.320344329E-1
1.425705236E1,1.012661815E0,-5.731443167E-1,6.939429045E-1
1.426705236E1,9.715811610E-1,-2.759583890E-1,9.508117437E-1
1.427705236E1,9.550877810E-1,1.221730486E-1,1.187369347E0
1.428705236E1,8.972083330E-1,9.592111707E-1,1.582599163E0
1.429705236E1,7.805330753E-1,1.188896537E0,1.695151091E0
1.430705236E1,6.543893814E-1,1.171486855E0,1.714851499E0
1.431705236E1,5.229006410E-1,9.544769526E-1,1.682170153E0
1.432705236E1,4.279111028E-1,6.400340796E-1,1.590234995E0
1.433705236E1,5.551238060E-1,2.139555514E-1,1.096961260E0
1.434705236E1,5.734497309E-1,3.043636084E-1,7.446447611E-1
1.435705236E1,2.897028327E-1,8.590292335E-1,3.147483170E-1
1.436705236E1,-7.299839705E-2,1.770134807E0,-2.144137025E-1
1.437705236E1,-7.971791178E-2,2.263713837E0,-5.865833759E-1
1.438705236E1,1.417207420E-1,1.864055276E0,-8.077165484E-1
1.439705236E1,1.882992089E-1,1.430341005E0,-7.783950567E-1
1.440705236E1,2.545780838E-1,1.091463447E0,-7.533495426E-1
1.441705236E1,4.864014387E-1,5.447390676E-1,-7.530441284E-1
1.442705236E1,8.239045143E-1,-2.360994220E-1,-7.675521970E-1
1.443705236E1,1.302670091E-1,-4.702135324E-1,-8.359690905E-1
1.444705236E1,-1.015563488E0,4.639521539E-1,-6.898195744E-1
1.445705236E1,-1.543656468E0,1.194699645E0,-2.199114859E-1
1.446705236E1,-1.475697756E0,1.407891631E0,3.878994286E-1
1.447705236E1,-1.038776398E0,1.016937971E0,1.002735257E0
1.448705236E1,-7.008151412E-1,-2.342668176E-1,1.375057697E0
1.449705236E1,-2.648100853E-1,-1.799609065E0,1.964084506E0
1.450705236E1,-3.145956099E-1,-2.052812576E0,2.213164806E0
1.451705236E1,-4.214970171E-1,-2.158645153E0,2.294562578E0
1.452705236E1,-3.152064681E-1,-2.108248711E0,2.256841660E0
1.453705236E1,7.024950348E-3,-1.937511802E0,2.183843136E0
1.454705236E1,5.616905689E-1,-1.481500983E0,1.745852828E0
1.455705236E1,7.473936081E-1,-1.085049391E0,1.377806544E0
1.456705236E1,9.324858189E-1,-7.438811660E-1,1.038776398E0
1.457705236E1,1.165072680E0,-5.676465034E-1,8.903360963E-1
1.458705236E1,1.468672752E0,-4.859432876E-1,9.048441648E-1
1.459705236E1,1.890475273E0,-2.096794993E-1,1.003346205E0
1.460705236E1,1.986381054E0,-2.170098722E-1,9.738719463E-1
1.461705236E1,2.089770079E0,-2.397646010E-2,8.611672521E-1
1.462705236E1,2.199573040E0,3.750712574E-1,7.666358948E-1
1.463705236E1,2.334574223E0,6.061310172E-1,7.041749358E-1
1.464705236E1,2.974608421E0,1.127810001E0,5.447390676E-1
1.465705236E1,3.352733850E0,1.012509108E0,4.103487432E-1
1.466705236E1,3.598759890E0,4.999932051E-1,2.582432926E-1
1.467705236E1,3.686877251E0,-4.627304152E-2,1.246165112E-1
1.468705236E1,3.643963814E0,-5.283984542E-2,1.197295859E-1
1.469705236E1,1.352455616E0,8.258898258E-1,8.865181804E-1
1.470705236E1,-1.802052408E-1,-4.138612002E-2,1.010218382E0
1.471705236E1,-9.931141734E-1,-2.544253767E-1,8.785769343E-1
1.472705236E1,-1.146594048E0,7.208210230E-2,7.389942408E-1
1.473705236E1,-9.393580556E-1,4.288274050E-1,7.040221691E-1
1.474705236E1,-6.360634565E-1,5.195409060E-1,2.046398520E-1
1.475705236E1,-6.659958363E-1,4.201225638E-1,-6.078109145E-2
1.476705236E1,-8.000807762E-1,2.043344229E-1,-3.046690524E-1
1.477705236E1,-1.081536889E0,-4.734205548E-3,-5.348125100E-1
1.478705236E1,-1.425759435E0,-1.973094791E-1,-7.696902156E-1
1.479705236E1,-1.800067186E0,-3.387247920E-1,-9.772316813E-1
1.480705236E1,-2.393369913E0,-6.687447429E-1,-1.244179845E0
1.481705236E1,-2.604729414E0,-8.935431242E-1,-1.374446750E0
1.482705236E1,-2.780964136E0,-1.067487001E0,-1.517847419E0
1.483705236E1,-2.937803745E0,-1.097877502E0,-1.672854424E0
1.484705236E1,-3.114954710E0,-9.721920490E-1,-1.900096297E0
1.485705236E1,-2.963765383E0,-7.098253965E-1,-2.918408632E0
1.486705236E1,-2.317775488E0,-1.207222462E0,-3.456886530E0
1.487705236E1,-2.160477638E0,-3.332269788E-1,-3.780797720E0
1.488705236E1,-2.020742178E0,6.989825368E-1,-3.719405651E0
1.489705236E1,-1.532660842E0,1.337947607E0,-3.455512047E0
1.490705236E1,-1.273043156E0,2.611296177E0,-2.203849077E0
1.491705236E1,-1.572978020E0,2.538755894E0,-1.863139033E0
1.492705236E1,-1.862222672E0,1.826945186E0,-1.657735586E0
1.493705236E1,-1.963320851E0,1.107345939E0,-1.200044751E0
1.494705236E1,-1.910328388E0,5.639813542E-1,-6.084218025E-1
1.495705236E1,-1.094975948E0,4.621195495E-1,-3.014619946E-1
1.496705236E1,-7.076873779E-1,1.055117011E0,-7.739662528E-1
1.497705236E1,-4.663956165E-1,1.565189481E0,-7.484626174E-1
1.498705236E1,-3.811798990E-1,1.313513041E0,-3.092505336E-1
1.499705236E1,-3.472768962E-1,8.155050874E-1,3.359758854E-2
1.500705236E1,-1.847867370E-1,-2.235766798E-1,2.510656118E-1
1.501705236E1,4.016438872E-2,-2.504547536E-1,2.628247738E-1
1.502705236E1,2.564106882E-1,-1.348485053E-1,3.900374472E-1
1.503705236E1,3.747658134E-1,-1.786780804E-1,5.702427030E-1
1.504705236E1,4.196644127E-1,-3.338378668E-1,7.878634334E-1
1.505705236E1,5.464189649E-1,-1.832595794E-3,1.288772941E0
1.506705236E1,6.389650702E-1,4.280638099E-1,1.546099901E0
1.507705236E1,7.151705027E-1,8.837692738E-1,1.763262510E0
1.508705236E1,7.073819637E-1,1.164614558E0,1.945453048E0
1.509705236E1,6.131559610E-1,1.259756804E0,2.082745075E0
1.510705236E1,4.899139404E-1,1.182329655E0,2.085035801E0
1.511705236E1,2.868012190E-1,8.672759533E-1,1.685682654E0
1.512705236E1,4.120286107E-1,7.392996550E-1,1.352761030E0
1.513705236E1,5.426010489E-1,7.860308290E-1,9.413433671E-1
1.514705236E1,3.868304193E-1,1.089478135E0,5.123631954E-1
1.515705236E1,7.635815442E-2,1.495856285E0,2.061670274E-2
1.516705236E1,-1.817324013E-2,1.894904017E0,-7.241807580E-1
1.517705236E1,-8.460483700E-2,1.680032134E0,-8.071057200E-1
1.518705236E1,-1.305724531E-1,1.263422012E0,-9.275988936E-1
1.519705236E1,-9.193521738E-2,8.723155856E-1,-1.079856992E0
1.520705236E1,-2.550362423E-2,6.186537743E-1,-1.164461851E0
1.521705236E1,-4.581489414E-2,4.552473128E-1,-1.162781954E0
1.522705236E1,-1.803579628E-1,-1.459967941E-1,-1.110858440E0
1.523705236E1,4.566217586E-2,-8.304712772E-1,-1.025795460E0
1.524705236E1,-1.999056488E-1,-4.880813360E-1,-9.332493544E-1
1.525705236E1,-9.059131742E-1,7.834346890E-1,-5.894849896E-1
1.526705236E1,-1.601077795E0,1.014341712E0,1.009760261E0
1.527705236E1,-1.537547827E0,-2.854267955E-1,1.619251013E0
1.528705236E1,-1.367727280E0,-1.766622305E0,2.000431061E0
1.529705236E1,-1.152855396E0,-2.644741058E0,2.273640394E0
1.530705236E1,-9.364564419E-1,-2.888781786E0,2.472171545E0
1.531705236E1,-4.631885588E-1,-2.836552858E0,2.419179201E0
1.532705236E1,-1.852448881E-1,-2.773328304E0,2.179719925E0
1.533705236E1,2.127338201E-1,-2.584112644E0,1.808924675E0
1.534705236E1,6.233879924E-1,-2.317775488E0,1.459357023E0
1.535705236E1,8.982773423E-1,-1.765095115E0,1.166294456E0
1.536705236E1,1.089630842E0,-1.090852618E0,8.924741149E-1
1.537705236E1,1.089630842E0,-1.090852618E0,8.924741149E-1
1.538705236E1,1.750434399E0,-5.595525503E-1,5.975789428E-1
1.539705236E1,2.020131350E0,-4.088215530E-1,7.078400850E-1
1.540705236E1,2.358550787E0,-3.518583775E-1,8.381071091E-1
1.541705236E1,2.659096479E0,-5.549710989E-1,9.256135821E-1
1.542705236E1,2.883131266E0,-7.145596147E-1,9.647089243E-1
1.543705236E1,2.985451221E0,-4.103487432E-1,9.161451459E-1
1.544705236E1,3.043941498E0,-2.553416789E-1,9.521862268E-1
1.545705236E1,3.039970875E0,-3.436116874E-1,9.347765446E-1
1.546705236E1,2.930931330E0,-4.851797223E-1,8.181012869E-1
1.547705236E1,1.860084653E0,-2.916881628E-2,6.673702598E-1
1.548705236E1,6.849326491E-1,-4.558582008E-1,7.660250068E-1
1.549705236E1,-3.034473062E-1,-1.027322650E0,8.074111342E-1
1.550705236E1,-9.946413636E-1,-1.143997908E0,8.017606139E-1
1.551705236E1,-1.436602354E0,-8.080220222E-1,7.896960378E-1
1.552705236E1,-1.564884067E0,-7.727445662E-2,7.389942408E-1
1.553705236E1,-1.445918083E0,4.795292020E-2,7.357872128E-1
1.554705236E1,-1.357342601E0,2.260201424E-2,6.157521605E-1
1.555705236E1,-1.351539373E0,-6.856962293E-2,4.676173329E-1
1.556705236E1,-1.380097270E0,-2.664899528E-1,2.956587672E-1
1.557705236E1,-1.500285029E0,-8.710938692E-1,-1.114829108E-1
1.558705236E1,-1.698205352E0,-1.086881995E0,-2.916881442E-1
1.559705236E1,-1.907274008E0,-1.298699498E0,-5.378668308E-1
1.560705236E1,-2.037082911E0,-1.567022085E0,-8.248208165E-1
1.561705236E1,-2.142762661E0,-1.808619261E0,-1.030987859E0
1.562705236E1,-2.624277115E0,-2.030057907E0,-1.396285176E0
1.563705236E1,-2.997973919E0,-2.008066893E0,-1.676366925E0
1.564705236E1,-3.367394686E0,-1.931097746E0,-2.158797741E0
1.565705236E1,-3.600897789E0,-1.838246226E0,-2.790279627E0
1.566705236E1,-3.253010035E0,-1.803121448E0,-3.322954178E0
1.567705236E1,-2.417651892E0,-2.094046116E0,-3.800803661E0
1.568705236E1,-1.668425679E0,9.143125415E-1,-4.047134876E0
1.569705236E1,-8.063421249E-1,1.936595559E0,-3.607311964E0
1.570705236E1,-4.340197444E-1,2.175901890E0,-2.925586462E0
1.571705236E1,-6.844745278E-1,1.883602977E0,-2.228436470E0
1.572705236E1,-1.044732332E0,1.047175765E0,-2.008830309E0
1.573705236E1,-1.052520871E0,-4.767803252E-1,-1.554346561E0
1.574705236E1,-1.011287451E0,-8.584184051E-1,-1.206000686E0
1.575705236E1,-9.735664725E-1,-1.236544013E0,-5.965099335E-1
1.576705236E1,-7.982481718E-1,-1.768302202E0,-3.054326177E-1
1.577705236E1,-2.183843255E-1,-1.832901120E0,-7.597636580E-1
1.578705236E1,4.440990388E-1,-1.104749799E0,-9.657779336E-1
1.579705236E1,4.627304375E-1,-1.443474531E0,-6.342308521E-1
1.580705236E1,5.456553698E-1,-1.731650233E0,-4.650211632E-1
1.581705236E1,6.980662346E-1,-1.850921750E0,-3.316998184E-1
1.582705236E1,8.918632865E-1,-1.829236031E0,-2.988658249E-1
1.583705236E1,1.242958069E0,-2.152841806E0,-2.671008408E-1
1.584705236E1,1.380860925E0,-2.410626888E0,-1.527163088E-1
1.585705236E1,1.403921008E0,-2.599078894E0,5.253441259E-2
1.586705236E1,1.319468975E0,-2.617404938E0,3.126102984E-1
1.587705236E1,1.173777580E0,-2.522567987E0,5.893322229E-1
1.588705236E1,8.417723179E-1,-2.337781191E0,1.086423874E0
1.589705236E1,7.026477456E-1,-2.281276226E0,1.244485259E0
1.590705236E1,5.758932233E-1,-2.137264729E0,1.318705320E0
1.591705236E1,4.399756789E-1,-2.058005095E0,1.338863850E0
1.592705236E1,2.997821271E-1,-2.159561396E0,1.261742115E0
1.593705236E1,2.330450863E-1,-2.262339354E0,6.545420885E-1
1.594705236E1,1.345430762E-1,-1.935068369E0,2.463314086E-1
1.595705236E1,-2.058615834E-1,-1.363909364E0,-1.968513280E-1
1.596705236E1,-4.696026444E-1,-8.468119502E-1,-6.734789610E-1
1.597705236E1,-3.869831264E-1,-3.326161206E-1,-1.028544307E0
1.598705236E1,-2.431243658E-1,-2.351831272E-2,-1.216385365E0
1.599705236E1,3.955352306E-2,-2.971859276E-1,-1.470963478E0
1.600705236E1,1.892155111E-1,-7.403686643E-1,-1.516320229E0
1.601705236E1,2.956587672E-1,-1.375973940E0,-1.430799127E0
1.602705236E1,2.295326144E-1,-2.063961029E0,-1.306182623E0
1.603705236E1,1.194241568E-1,-2.770579338E0,-1.220661521E0
1.604705236E1,1.449277848E-1,-3.752087116E0,-1.023352027E0
1.605705236E1,-3.315471113E-1,-3.617696762E0,-8.069530129E-1
1.606705236E1,-1.007622242E0,-2.838843584E0,-4.463897645E-1
1.607705236E1,-1.685529947E0,-2.231185198E0,3.054326214E-2
1.608705236E1,-1.781893969E0,-2.827237129E0,5.511531830E-1
1.609705236E1,-3.529273868E-1,-4.806593418E0,1.081384182E0
1.610705236E1,3.376557529E-1,-4.760778427E0,1.046259403E0
1.611705236E1,7.904596329E-1,-4.170224190E0,9.118691087E-1
1.612705236E1,1.144914150E0,-3.483000994E0,6.244570017E-1
1.613705236E1,1.278388262E0,-3.124117613E0,2.794708610E-1
1.614705236E1,1.377043009E0,-2.499813318E0,-7.941247895E-3
1.615705236E1,1.729970336E0,-1.983937621E0,7.238753140E-2
1.616705236E1,2.173763990E0,-1.801594377E0,1.458440721E-1
1.617705236E1,2.537381411E0,-1.600466967E0,1.866193265E-1
1.618705236E1,2.799748182E0,-1.328173757E0,2.461786866E-1
1.619705236E1,3.044552326E0,-1.020755768E0,5.720753074E-1
1.620705236E1,3.053562641E0,-9.335548282E-1,7.874053121E-1
1.621705236E1,2.939941645E0,-7.481572032E-1,9.436340928E-1
1.622705236E1,2.710867167E0,-5.575672388E-1,1.050077319E0
1.623705236E1,2.472477198E0,-4.260784984E-1,1.168432474E0
1.624705236E1,2.212401152E0,-2.171625942E-1,1.244485259E0
1.625705236E1,1.231351614E0,1.007927675E-2,1.188743711E0
1.626705236E1,5.989533663E-1,-2.058615834E-1,1.058018565E0
1.627705236E1,1.195768714E-1,-5.093088746E-1,8.875871897E-1
1.628705236E1,-9.896016866E-2,-7.533495426E-1,6.730207801E-1
1.629705236E1,-3.940080851E-2,-8.310821652E-1,4.404338300E-1
1.630705236E1,4.387539625E-1,-1.991420686E-1,4.210388660E-1
1.631705236E1,4.416555762E-1,-2.315179259E-1,5.198463202E-1
1.632705236E1,2.251038402E-1,-4.190535545E-1,5.167919993E-1
1.633705236E1,-4.581489414E-2,-5.652030706E-1,4.566217661E-1
1.634705236E1,-3.394883573E-1,-6.768386960E-1,3.258966208E-1
1.635705236E1,-3.394883573E-1,-6.768386960E-1,3.258966208E-1
1.636705236E1,-1.266170979E0,-1.409418821E0,-8.781187981E-2
1.637705236E1,-1.399339557E0,-1.802510619E0,-2.008219510E-1
1.638705236E1,-1.521665335E0,-2.307238102E0,-2.777909636E-1
1.639705236E1,-1.678504944E0,-2.798984528E0,-3.692680299E-1
1.640705236E1,-1.973858356E0,-3.427106857E0,-6.530149579E-1
1.641705236E1,-2.130850792E0,-3.683975458E0,-8.445212245E-1
1.642705236E1,-2.377487421E0,-3.818213224E0,-1.020603061E0
1.643705236E1,-2.657721996E0,-3.683212042E0,-1.157284260E0
1.644705236E1,-2.900082827E0,-3.193450689E0,-1.304502726E0
1.645705236E1,-3.109151363E0,-1.307404399E0,-2.232712507E0
1.646705236E1,-2.426051378E0,-9.332493544E-1,-2.916728735E0
1.647705236E1,-1.936748266E0,-4.503603876E-1,-3.449708700E0
1.648705236E1,-1.562135100E0,9.816604257E-1,-3.821114779E0
1.649705236E1,-6.227771044E-1,2.231185198E0,-3.535229921E0
1.650705236E1,-5.685628057E-1,2.484236240E0,-2.859002113E0
1.651705236E1,-1.089783549E0,1.876578093E0,-2.654973030E0
1.652705236E1,-1.207985997E0,9.124799371E-1,-2.143526077E0
1.653705236E1,-1.161407590E0,1.693623960E-1,-1.573894262E0
1.654705236E1,-1.064585447E0,-4.637994468E-1,-1.047633886E0
1.655705236E1,-9.056077003E-1,-9.509644508E-1,-6.707300544E-1
1.656705236E1,1.623374373E-1,-8.142833710E-1,-6.255260110E-1
1.657705236E1,4.190535545E-1,-6.227771044E-1,-1.043663263E0
1.658705236E1,6.130032539E-1,-6.123924255E-1,-9.779952765E-1
1.659705236E1,7.872526050E-1,-6.861543655E-1,-6.003278494E-1
1.660705236E1,8.839219809E-1,-6.455318332E-1,-4.207334518E-1
1.661705236E1,1.115745425E0,-8.633053303E-1,-4.809036553E-1
1.662705236E1,1.264032960E0,-1.168279767E0,-4.656320214E-1
1.663705236E1,1.390023828E0,-1.348637700E0,-4.071416855E-1
1.664705236E1,1.458746195E0,-1.450346828E0,-2.796235681E-1
1.665705236E1,1.407433510E0,-1.579850197E0,-3.237585723E-2
1.666705236E1,1.106582403E0,-1.654070377E0,5.781839490E-1
1.667705236E1,9.169087410E-1,-1.578017592E0,8.547531962E-1
1.668705236E1,6.750060916E-1,-1.563662291E0,1.095739484E0
1.669705236E1,4.126394689E-1,-1.809077382E0,1.271974206E0
1.670705236E1,2.200642079E-1,-2.049605608E0,1.371087074E0
1.671705236E1,9.926560335E-3,-2.592664719E0,1.396590710E0
1.672705236E1,-4.321871698E-2,-2.903900623E0,1.260825872E0
1.673705236E1,-6.047565863E-2,-3.031571388E0,1.041525245E0
1.674705236E1,-6.612616032E-2,-2.985756636E0,7.293730974E-1
1.675705236E1,-6.795875728E-2,-2.841439724E0,3.419318199E-1
1.676705236E1,-5.862779021E-1,-1.075733662E0,-7.391469479E-1
1.677705236E1,-4.248567820E-1,9.544769675E-2,-1.149495721E0
1.678705236E1,-1.740965992E-2,7.695375085E-1,-1.407738924E0
1.679705236E1,2.790127099E-1,9.337075353E-1,-1.672396302E0
1.680705236E1,4.361577928E-1,8.109236360E-1,-1.764789701E0
1.681705236E1,3.472768962E-1,-8.455902338E-1,-1.885893703E0
1.682705236E1,3.998112977E-1,-2.062891960E0,-1.808161139E0
1.683705236E1,2.434297949E-1,-2.576782227E0,-1.638646007E0
1.684705236E1,-1.594358236E-1,-1.412320495E0,-1.299615860E0
1.685705236E1,-9.398161769E-1,-6.348416805E-1,-9.108000994E-1
1.686705236E1,-1.849699974E0,-1.371239781E0,-1.757764816E-1
1.687705236E1,-1.389412999E0,-3.057075024E0,1.656513810E0
1.688705236E1,-9.634872079E-1,-4.051869392E0,1.937359095E0
1.689705236E1,-5.896376967E-1,-3.993989706E0,1.952936172E0
1.690705236E1,-2.813034356E-1,-3.784157515E0,1.892460585E0
1.691705236E1,8.063421398E-2,-3.648545504E0,1.813200712E0
1.692705236E1,6.001750827E-1,-3.132975101E0,1.400103092E0
1.693705236E1,8.176431060E-1,-2.598162651E0,1.115592599E0
1.694705236E1,1.008538485E0,-1.760819077E0,8.475755453E-1
1.695705236E1,1.254564524E0,-1.136667490E0,6.539312601E-1
1.696705236E1,1.528537512E0,-9.428704977E-1,5.178610086E-1
1.697705236E1,2.020742178E0,-8.110763431E-1,5.006040931E-1
1.698705236E1,2.171931267E0,-8.246681094E-1,5.991060734E-1
1.699705236E1,2.227825642E0,-8.761335015E-1,7.122688890E-1
1.700705236E1,2.195907831E0,-8.659014702E-1,7.892379165E-1
1.701705236E1,2.083508730E0,-8.058840036E-1,8.130616546E-1
1.702705236E1,1.777159691E0,-8.646797538E-1,8.364272118E-1
1.703705236E1,1.626428723E0,-1.107651353E0,8.084801435E-1
1.704705236E1,1.529606581E0,-1.354899168E0,7.719809413E-1
1.705705236E1,1.539685845E0,-1.495703578E0,7.577783465E-1
1.706705236E1,1.637729764E0,-1.490511179E0,6.782131195E-1
1.707705236E1,1.786170006E0,-1.158658624E0,3.672827184E-1
1.708705236E1,1.813811660E0,-9.906707406E-1,2.105957866E-1
1.709705236E1,1.696525455E0,-7.108944058E-1,1.379028261E-1
1.710705236E1,1.255480766E0,-4.670064747E-1,1.618792862E-1
1.711705236E1,4.312708676E-1,-3.159700334E-1,2.385428846E-1
1.712705236E1,-4.972442985E-1,-3.914119005E-1,2.751947939E-1
1.713705236E1,-1.699732542E0,-1.027017236E0,1.933388561E-1
1.714705236E1,-1.896889329E0,-1.303891897E0,2.067778856E-1
1.715705236E1,-1.707826495E0,-1.415069342E0,2.693915665E-1
1.716705236E1,-1.383762479E0,-1.631162882E0,3.347541690E-1
1.717705236E1,-1.209818602E0,-1.935679197E0,3.084869385E-1
1.718705236E1,-1.572367191E0,-2.143678904E0,-5.467243865E-2
1.719705236E1,-1.851990700E0,-2.070985794E0,-2.209804952E-1
1.720705236E1,-2.120618582E0,-2.101529121E0,-3.294090927E-1
1.721705236E1,-2.359772444E0,-2.249358654E0,-4.628831446E-1
1.722705236E1,-2.549293280E0,-2.559372663E0,-6.436992288E-1
1.723705236E1,-2.846326590E0,-3.167947054E0,-1.155451655E0
1.724705236E1,-3.014467239E0,-3.302643061E0,-1.503797531E0
1.725705236E1,-3.155882597E0,-3.423136234E0,-1.964542627E0
1.726705236E1,-3.154202700E0,-3.498425245E0,-2.503325701E0
1.727705236E1,-2.688723326E0,-4.000251293E0,-3.063489199E0
1.728705236E1,-1.958281279E0,-1.544420004E0,-3.830430508E0
1.729705236E1,-1.225701094E0,3.113885522E-1,-3.647171021E0
1.730705236E1,-2.031126916E-1,1.036791086E0,-3.084563971E0
1.731705236E1,3.385720551E-1,1.164309144E0,-2.439032316E0
1.732705236E1,1.566869318E-1,5.279402733E-1,-2.141846180E0
1.733705236E1,-7.182248235E-1,-2.988658249E-1,-1.802968740E0
1.734705236E1,-8.231409192E-1,-6.725626588E-1,-1.390940189E0
1.735705236E1,-7.539604306E-1,-1.134224057E0,-9.185886383E-1
1.736705236E1,-5.042692423E-1,-1.265407324E0,-6.487388611E-1
1.737705236E1,-7.773260027E-2,-9.694431424E-1,-5.331326723E-1
1.738705236E1,6.841690540E-1,-4.731151462E-1,-5.390886068E-1
1.739705236E1,6.969972253E-1,-6.302602291E-1,-4.605923891E-1
1.740705236E1,6.510296464E-1,-7.953465581E-1,-4.040873647E-1
1.741705236E1,6.882924438E-1,-8.379544020E-1,-3.872885704E-1
1.742705236E1,7.709119320E-1,-9.769262671E-1,-3.784310222E-1
1.743705236E1,8.432994485E-1,-1.199281216E0,-3.735440969E-1
1.744705236E1,1.152855396E0,-1.318858027E0,-2.831360400E-1
1.745705236E1,1.259451389E0,-1.302212000E0,-1.953241676E-1
1.746705236E1,1.264185667E0,-1.278235555E0,-8.781187981E-2
1.747705236E1,1.263574719E0,-1.210276723E0,3.344487399E-2
1.748705236E1,1.223257661E0,-1.227533698E0,1.884519309E-1
1.749705236E1,1.106735110E0,-1.443016410E0,5.561928153E-1
1.750705236E1,1.005484223E0,-1.603215814E0,7.104362845E-1
1.751705236E1,8.626944423E-1,-1.783268332E0,8.318457603E-1
1.752705236E1,7.325801253E-1,-1.895362139E0,9.034696817E-1
1.753705236E1,6.455318332E-1,-1.911244631E0,9.327912331E-1
1.754705236E1,5.697845817E-1,-1.839468002E0,8.796459436E-1
1.755705236E1,5.943718553E-1,-1.727068782E0,7.751879692E-1
1.756705236E1,6.638578176E-1,-1.471421719E0,5.994115472E-1
1.757705236E1,7.446447611E-1,-1.118799686E0,3.961461186E-1
1.758705236E1,7.965682745E-1,-7.127270103E-1,2.162462920E-1
1.759705236E1,8.556694984E-1,4.550946131E-2,-2.058615834E-1
1.760705236E1,9.007207751E-1,2.913827300E-1,-4.364632070E-1
1.761705236E1,9.031642675E-1,3.904955983E-1,-6.337726712E-1
1.762705236E1,8.310821652E-1,3.477350473E-1,-8.060367107E-1
1.763705236E1,6.918048859E-1,1.594358236E-1,-9.422596693E-1
1.764705236E1,7.452555746E-2,-5.510004759E-1,-9.657779336E-1
1.765705236E1,-5.128213763E-1,-1.058782220E0,-7.660250068E-1
1.766705236E1,-1.408655286E0,-8.486445546E-1,-4.459316432E-1
1.767705236E1,-2.129934311E0,1.249219403E-1,-1.525636017E-1
1.768705236E1,-2.077247381E0,8.025242090E-1,-1.893682331E-1
1.769705236E1,-1.113301873E0,1.053284407E0,2.669481039E-1
1.770705236E1,-9.332493544E-1,4.204280078E-1,4.755585790E-1
1.771705236E1,-6.925684810E-1,-4.813618064E-1,6.192646623E-1
1.772705236E1,-4.757113159E-1,-1.329395533E0,7.791585922E-1
1.773705236E1,-2.646573782E-1,-1.972178459E0,1.051299095E0
1.774705236E1,8.338310570E-2,-2.460565090E0,1.381319046E0
1.775705236E1,9.028588533E-1,-2.727818727E0,1.670258284E0
1.776705236E1,1.241430879E0,-2.576629639E0,1.631468296E0
1.777705236E1,1.556331873E0,-2.311055899E0,1.461342335E0
1.778705236E1,1.861001015E0,-2.004707098E0,1.214705586E0
1.779705236E1,2.185523033E0,-1.712407947E0,8.689557910E-1
1.780705236E1,2.468811989E0,-1.476613998E0,5.071708560E-1
1.781705236E1,2.465146780E0,-1.484860659E0,4.387539625E-1
1.782705236E1,2.472935200E0,-1.524872422E0,3.750712574E-1
1.783705236E1,2.446515322E0,-1.244332552E0,3.376557529E-1
1.784705236E1,2.347707748E0,-8.483390808E-1,3.605632186E-1
1.785705236E1,2.256383419E0,-3.636175394E-1,3.316998184E-1
1.786705236E1,2.244929790E0,-4.411974251E-1,3.544545472E-1
1.787705236E1,2.198351383E0,-5.499314666E-1,4.234823287E-1
1.788705236E1,2.067320824E0,-5.716171265E-1,5.334380865E-1
1.789705236E1,1.852754235E0,-4.876231849E-1,6.478226185E-1
1.790705236E1,1.185078621E0,-4.914411008E-1,8.784242272E-1
1.791705236E1,8.187121153E-1,-5.581781268E-1,9.166033268E-1
1.792705236E1,5.080871582E-1,-5.697845817E-1,8.535314798E-1
1.793705236E1,2.460259795E-1,-5.207626224E-1,7.542658448E-1
1.794705236E1,2.107485011E-2,-4.970915914E-1,6.777549982E-1
1.795705236E1,-3.217732608E-1,-5.969680548E-1,5.630650520E-1
1.796705236E1,-4.056145251E-1,-7.782423496E-1,5.842925906E-1
1.797705236E1,-4.607451260E-1,-1.013272762E0,6.160575747E-1
1.798705236E1,-5.216789246E-1,-1.289383769E0,5.548183322E-1
1.799705236E1,-6.296493411E-1,-1.538616896E0,3.949243724E-1
1.800705236E1,-8.306240439E-1,-1.697899938E0,1.857030392E-1
1.801705236E1,-1.737606168E0,-1.761429906E0,-3.123048544E-1
1.802705236E1,-2.265851974E0,-1.744173050E0,-5.201517344E-1
1.803705236E1,-2.710714579E0,-1.829236031E0,-6.614143252E-1
1.804705236E1,-3.025462866E0,-1.905441403E0,-8.028296232E-1
1.805705236E1,-3.202155590E0,-1.817171335E0,-9.462302923E-1
1.806705236E1,-3.515376806E0,-1.385289669E0,-1.382846236E0
1.807705236E1,-3.656486750E0,-1.076039076E0,-1.738675237E0
1.808705236E1,-3.701385260E0,-6.939429045E-1,-2.184454203E0
1.809705236E1,-3.370754480E0,-5.296201706E-1,-2.637105227E0
1.810705236E1,-2.731178522E0,-5.326744914E-1,-3.003319025E0
1.811705236E1,-1.756237626E0,8.216137290E-1,-2.765692472E0
1.812705236E1,-1.425301313E0,1.007164121E0,-2.403907537E0
1.813705236E1,-1.455844641E0,1.242499948E0,-2.221869707E0
1.814705236E1,-1.667051196E0,1.242805362E0,-2.050674677E0
1.815705236E1,-1.790751457E0,1.010218382E0,-1.687820673E0
1.816705236E1,-1.457219005E0,-3.512475267E-2,-1.105666041E0
1.817705236E1,-1.306640744E0,-2.086104751E-1,-9.054549932E-1
1.818705236E1,-1.152397275E0,-5.068654418E-1,-7.596109509E-1
1.819705236E1,-9.902125597E-1,-6.162103415E-1,-6.334672570E-1
1.820705236E1,-7.875580192E-1,-3.950771093E-1,-5.093088746E-1
1.821705236E1,-2.469422817E-1,-4.221078753E-1,-5.458080769E-1
1.822705236E1,-6.490442902E-2,-9.062185884E-1,-4.120286107E-1
1.823705236E1,1.212567538E-1,-1.069625020E0,-2.055561543E-1
1.824705236E1,2.664899528E-1,-1.089630842E0,-6.673702598E-2
1.825705236E1,4.178318381E-1,-1.246928692E0,-1.447750628E-1
1.826705236E1,8.794932365E-1,-1.136820197E0,-2.805398703E-1
1.827705236E1,1.064738154E0,-1.230893493E0,-1.910481006E-1
1.828705236E1,1.149343014E0,-1.440267563E0,-8.002334833E-2
1.829705236E1,1.142165303E0,-1.667051196E0,1.299615800E-1
1.830705236E1,1.090547204E0,-1.772120118E0,3.883575797E-1
1.831705236E1,1.011440158E0,-1.702175975E0,6.647741199E-1
1.832705236E1,8.234463334E-1,-1.311375022E0,1.218981624E0
1.833705236E1,6.652322412E-1,-1.202793717E0,1.445612550E0
1.834705236E1,5.316054821E-1,-1.104444385E0,1.578323126E0
1.835705236E1,4.569272101E-1,-1.006095052E0,1.581377387E0
1.836705236E1,4.589125216E-1,-9.711230397E-1,1.488831282E0
1.837705236E1,7.137960196E-1,-9.477574229E-1,1.110094905E0
1.838705236E1,8.281805515E-1,-7.599163651E-1,8.324565887E-1
1.839705236E1,8.626944423E-1,-3.368921876E-1,4.477642179E-1
1.840705236E1,8.269588351E-1,2.002110779E-1,-7.055493444E-2
1.841705236E1,6.485861540E-1,7.686212063E-1,-5.800165534E-1
1.842705236E1,4.379903674E-1,1.367421865E0,-1.078177214E0
1.843705236E1,5.250386596E-1,1.252731919E0,-1.238834739E0
1.844705236E1,5.650503635E-1,1.061683774E0,-1.393841743E0
1.845705236E1,5.216789246E-1,8.657487631E-1,-1.536326051E0
1.846705236E1,5.403103232E-1,5.045747161E-1,-1.567632914E0
1.847705236E1,5.836817622E-1,-7.585419416E-1,-1.210734963E0
1.848705236E1,-1.537853181E-1,-4.291328490E-1,-8.536841869E-1
1.849705236E1,-8.680394888E-1,4.804455042E-1,-2.834414840E-1
1.850705236E1,-1.308167934E0,6.678284407E-1,2.127338201E-1
1.851705236E1,-1.449583173E0,4.932736978E-2,6.771441102E-1
1.852705236E1,-1.020908594E0,-1.519527316E0,1.250288486E0
1.853705236E1,-8.723155856E-1,-1.964848042E0,1.363603950E0
1.854705236E1,-8.880453706E-1,-2.208735943E0,1.544267297E0
1.855705236E1,-7.805330753E-1,-2.490345001E0,1.708590150E0
1.856705236E1,-5.322163701E-1,-2.732247591E0,1.819156647E0
1.857705236E1,4.763221741E-1,-2.448653221E0,1.778686881E0
1.858705236E1,1.038929105E0,-1.800067186E0,1.559080839E0
1.859705236E1,1.461036921E0,-8.921687007E-1,1.200655699E0
1.860705236E1,1.875356317E0,-6.811147183E-2,8.649851680E-1
1.861705236E1,2.407572746E0,3.216205537E-1,6.389650702E-1
1.862705236E1,3.010649443E0,5.187773108E-1,5.707008839E-1
1.863705236E1,3.745214701E0,4.856378585E-2,8.220719099E-1
1.864705236E1,4.010635853E0,2.658790946E-1,8.495608568E-1
1.865705236E1,4.105319977E0,8.170322776E-1,9.133962393E-1
1.866705236E1,4.008650303E0,8.988882303E-1,9.995282292E-1
1.867705236E1,3.831346750E0,6.075055003E-1,1.025184631E0
1.868705236E1,3.631135702E0,4.810563847E-2,8.991936445E-1
1.869705236E1,3.254689932E0,2.206750661E-1,8.713992834E-1
1.870705236E1,2.229810953E0,1.956295967E-1,8.987354636E-1
1.871705236E1,1.077260852E0,-3.933972120E-1,9.036223888E-1
1.872705236E1,2.825251818E-1,-9.366091490E-1,8.715519905E-1
1.873705236E1,2.825251818E-1,-9.366091490E-1,8.715519905E-1
1.874705236E1,-2.128865421E-1,-8.506298810E-2,8.732318878E-1
1.875705236E1,-1.939497143E-1,9.361509979E-2,9.511171579E-1
1.876705236E1,-2.874121070E-1,-2.748893574E-3,9.166033268E-1
1.877705236E1,-4.587597847E-1,-6.520986557E-2,7.822129726E-1
1.878705236E1,-8.008443117E-1,-1.340849251E-1,3.649919927E-1
1.879705236E1,-9.560040832E-1,-3.365867436E-1,8.704829961E-2
1.880705236E1,-1.079704285E0,-6.097962260E-1,-1.889100820E-1
1.881705236E1,-1.172555804E0,-8.936958313E-1,-4.709770977E-1
1.882705236E1,-1.253190041E0,-1.047633886E0,-7.220427394E-1
1.883705236E1,-1.556026459E0,-8.842274547E-1,-9.586002827E-1
1.884705236E1,-1.796554685E0,-8.962920308E-1,-1.029155254E0
1.885705236E1,-2.094504118E0,-1.047481179E0,-1.102611780E0
1.886705236E1,-2.433687210E0,-1.253037333E0,-1.186147571E0
1.887705236E1,-2.752558708E0,-1.525635958E0,-1.321454287E0
1.888705236E1,-3.216052771E0,-1.725083470E0,-1.871080279E0
1.889705236E1,-3.235142231E0,-1.345125318E0,-2.326785803E0
1.890705236E1,-2.792876005E0,-1.406211853E0,-2.791806936E0
1.891705236E1,-2.359772444E0,-1.293507099E0,-3.245985270E0
1.892705236E1,-2.277763844E0,-4.245513305E-2,-3.612962484E0
1.893705236E1,-2.035708427E0,1.514029503E0,-3.703981400E0
1.894705236E1,-1.262353063E0,2.960711241E0,-2.603660345E0
1.895705236E1,-1.454775572E0,2.738050699E0,-1.972178459E0
1.896705236E1,-1.584126353E0,1.781435728E0,-1.505935550E0
1.897705236E1,-1.545489073E0,2.864958048E-1,-1.129337072E0
1.898705236E1,-1.612684250E0,-7.406741381E-1,-8.576548100E-1
1.899705236E1,-1.526094079E0,-1.341307402E0,-2.725986242E-1
1.900705236E1,-1.256397128E0,-8.481863737E-1,-4.352414906E-1
1.901705236E1,-8.843801618E-1,3.863722831E-2,-6.545420885E-1
1.902705236E1,-5.984952450E-1,3.784310222E-1,-8.020660877E-1
1.903705236E1,-3.181080818E-1,2.328923792E-1,-7.472409010E-1
1.904705236E1,1.327104717E-1,-3.278819323E-1,-4.080579877E-1
1.905705236E1,2.800817192E-1,-7.883216143E-1,-4.228714705E-1
1.906705236E1,4.444044530E-1,-8.869763613E-1,-4.456261992E-1
1.907705236E1,7.194465399E-1,-6.620252132E-1,-4.425718784E-1
1.908705236E1,1.081995010E0,-4.631885588E-1,-4.237877727E-1
1.909705236E1,1.480737329E0,-5.186246037E-1,-8.399397135E-3
1.910705236E1,1.426370382E0,-6.976081133E-1,3.068070710E-1
1.911705236E1,1.340085626E0,-6.525567770E-1,6.209445000E-1
1.912705236E1,1.242194533E0,-4.320344329E-1,9.019425511E-1
1.913705236E1,1.097724795E0,-2.325869352E-1,1.131475091E0
1.914705236E1,6.844745278E-1,-2.658790946E-1,1.428661108E0
1.915705236E1,5.225952268E-1,-5.009095073E-1,1.496008992E0
1.916705236E1,4.683809280E-1,-7.171558142E-1,1.475545049E0
1.917705236E1,5.523748994E-1,-9.964739084E-1,1.370018005E0
1.918705236E1,7.683157325E-1,-1.326646566E0,1.223868489E0
1.919705236E1,1.016021609E0,-1.310458660E0,1.000139117E0
1.920705236E1,7.788531780E-1,2.434297949E-1,2.031126916E-1
1.921705236E1,1.050688252E-1,1.317941785E0,-3.552181423E-1
1.922705236E1,-4.291328415E-2,2.252107382E0,-8.602510095E-1
1.923705236E1,1.278235465E-1,2.785392761E0,-1.179886222E0
1.924705236E1,3.518583775E-1,2.950937271E0,-1.396743417E0
1.925705236E1,8.237518072E-1,2.554332972E0,-1.669494748E0
1.926705236E1,9.185886383E-1,1.950340033E0,-1.772883654E0
1.927705236E1,1.036638379E0,9.228646755E-1,-1.732261062E0
1.928705236E1,1.084896684E0,-1.183551401E-1,-1.565800309E0
1.929705236E1,2.379320115E-1,4.593706727E-1,-1.107193232E0
1.930705236E1,-1.406975389E0,1.527468562E0,3.981314301E-1
1.931705236E1,-1.655750275E0,3.944662213E-1,1.034653068E0
1.932705236E1,-1.734551907E0,-1.251815557E0,1.512960553E0
1.933705236E1,-1.653306842E0,-2.388330460E0,1.669189334E0
1.934705236E1,-1.521512628E0,-2.987589121E0,1.898874640E0
1.935705236E1,-1.124297500E0,-3.023172140E0,2.255772591E0
1.936705236E1,-6.966918111E-1,-2.820059299E0,2.287842989E0
1.937705236E1,-2.463314086E-1,-2.581363916E0,2.161393881E0
1.938705236E1,1.588249654E-1,-2.368019104E0,1.867567778E0
1.939705236E1,3.769038618E-1,-2.125352859E0,1.430188298E0
1.940705236E1,7.480044961E-1,-8.432994485E-1,6.685920358E-1
1.941705236E1,1.166905284E0,-7.559457421E-1,5.939137340E-1
1.942705236E1,1.613295078E0,-8.278751373E-1,5.036584139E-1
1.943705236E1,2.008830309E0,-6.210972667E-1,5.028948188E-1
1.944705236E1,2.405434608E0,-2.729040384E-1,6.126978397E-1
1.945705236E1,2.984382153E0,2.249511331E-1,6.498079300E-1
1.946705236E1,3.160616875E0,3.937026560E-1,6.369797587E-1
1.947705236E1,3.337767601E0,5.955936313E-1,6.389650702E-1
1.948705236E1,3.534313679E0,6.948592067E-1,5.853615999E-1
1.949705236E1,3.677866936E0,5.771149397E-1,4.502076805E-1
1.950705236E1,3.727957964E0,2.594650090E-1,3.373503387E-1
1.951705236E1,3.678630590E0,-2.974913716E-1,9.392052889E-2
1.952705236E1,3.679394007E0,-1.582140923E-1,-3.711006418E-2
1.953705236E1,3.197879553E0,6.585127115E-1,6.688974798E-2
1.954705236E1,1.905594110E0,9.726501703E-1,5.018258095E-1
1.955705236E1,2.901609838E-1,3.878994286E-1,8.225300312E-1
1.956705236E1,-1.736689925E0,-1.924225539E-1,8.240572214E-1
1.957705236E1,-1.712407947E0,-6.872233748E-2,6.684392691E-1
1.958705236E1,-1.272126913E0,8.765916526E-2,5.317581892E-1
1.959705236E1,-8.037459254E-1,1.461495161E-1,4.433354437E-1
1.960705236E1,-4.531092942E-1,4.153883755E-1,3.538436890E-1
1.961705236E1,-3.758348525E-1,8.487972617E-1,-6.627888232E-2
1.962705236E1,-5.948300362E-1,8.558222055E-1,-4.321871698E-1
1.963705236E1,-1.008843899E0,8.629998565E-1,-7.878634334E-1
1.964705236E1,-1.492649198E0,7.365507483E-1,-1.051451802E0
1.965705236E1,-1.863597155E0,5.137376785E-1,-1.188743711E0
1.966705236E1,-2.341446400E0,-2.554943860E-1,-1.375057697E0
1.967705236E1,-2.553569555E0,-6.357579827E-1,-1.548848867E0
1.968705236E1,-2.700788021E0,-8.933904171E-1,-1.793042183E0
1.969705236E1,-2.769968510E0,-9.798278809E-1,-2.049758434E0
1.970705236E1,-2.813645363E0,-9.300423265E-1,-2.264172077E0
1.971705236E1,-2.484541655E0,-1.072984815E0,-2.796540976E0
1.972705236E1,-2.101834536E0,-1.185536742E0,-3.171459675E0
1.973705236E1,-1.990046263E0,-6.371324658E-1,-3.455512047E0
1.974705236E1,-2.146427870E0,4.053090811E-1,-3.629150391E0
1.975705236E1,-2.008066893E0,1.570381880E0,-3.628081322E0
1.976705236E1,-1.060309291E0,2.562274218E0,-2.418110132E0
1.977705236E1,-1.052978992E0,2.486221552E0,-1.761735320E0
1.978705236E1,-1.184009552E0,2.043802500E0,-1.158505917E0
1.979705236E1,-1.341460109E0,9.695958495E-1,-7.793113589E-1
1.980705236E1,-1.445459843E0,1.507309973E-1,-5.467243791E-1
1.981705236E1,-1.468061924E0,-1.218676195E-1,-2.991712391E-1
1.982705236E1,-1.018923283E0,-7.269296050E-2,1.252273768E-1
1.983705236E1,-6.421720982E-1,1.595885456E-1,-1.036943719E-1
1.984705236E1,-5.198463202E-1,6.272059083E-1,-4.017966092E-1
1.985705236E1,-3.425426781E-1,1.139721870E0,-5.067127347E-1
1.986705236E1,7.941248268E-2,1.618640184E0,-6.647741199E-1
1.987705236E1,2.516764700E-1,1.258993268E0,-4.680754840E-1
1.988705236E1,1.892155111E-1,5.806274414E-1,-3.080287874E-1
1.989705236E1,3.258966208E-1,-2.474004216E-2,-2.968805134E-1
1.990705236E1,5.600107312E-1,-3.231477141E-1,-1.901318133E-1
1.991705236E1,7.370089293E-1,-4.389066696E-1,4.703662544E-2
1.992705236E1,9.344711304E-1,-7.257078886E-1,6.273586154E-1
1.993705236E1,9.546296597E-1,-7.527387142E-1,9.092729092E-1
1.994705236E1,9.283624291E-1,-5.827654600E-1,1.161713004E0
1.995705236E1,9.387471676E-1,-1.646281779E-1,1.366505504E0
1.996705236E1,9.359982610E-1,3.295617998E-1,1.553583026E0
1.997705236E1,6.588181853E-1,8.828529716E-1,1.823127270E0
1.998705236E1,4.824308157E-1,8.474228382E-1,1.880548716E0
1.999705236E1,3.993531466E-1,6.901249886E-1,1.791973233E0
2.000705236E1,4.677700698E-1,4.812090993E-1,1.573436141E0
2.001705236E1,6.307183504E-1,1.620320082E-1,1.334587812E0
2.002705236E1,9.807441235E-1,5.650503561E-3,8.290968537E-1
2.003705236E1,9.016370773E-1,7.060074806E-1,3.872885704E-1
2.004705236E1,6.075055003E-1,1.532050014E0,-1.583668143E-1
2.005705236E1,3.045163155E-1,2.268142700E0,-6.152940392E-1
2.006705236E1,1.812742651E-1,2.630691290E0,-8.035932183E-1
2.007705236E1,2.402227521E-1,2.510656118E0,-9.117164016E-1
2.008705236E1,3.533855379E-1,1.934610248E0,-9.370672703E-1
2.009705236E1,4.372268021E-1,1.563967705E0,-9.294314981E-1
2.010705236E1,5.978843570E-1,1.010523796E0,-9.497427344E-1
2.011705236E1,8.164213896E-1,2.208277881E-1,-9.298896194E-1
2.012705236E1,8.794932365E-1,-5.021312237E-1,-8.765916228E-1
2.013705236E1,-5.555819273E-1,1.537089705E0,-5.054910183E-1
2.014705236E1,-7.614435554E-1,1.988671780E0,1.125519201E-1
2.015705236E1,-5.603161454E-1,1.491732955E0,8.017606139E-1
2.016705236E1,-4.428772926E-1,4.158465266E-1,1.199892044E0
2.017705236E1,-5.164865851E-1,-2.480112910E-1,1.378417373E0
2.018705236E1,-5.794056654E-1,2.565634064E-2,1.865887880E0
2.019705236E1,-6.815729141E-1,-4.276056588E-2,2.057241440E0
2.020705236E1,-7.709119320E-1,-4.094324410E-1,2.096947670E0
2.021705236E1,-7.147123218E-1,-7.257078886E-1,2.004859686E0
2.022705236E1,-4.685336351E-1,-9.097310901E-1,1.842369556E0
2.023705236E1,1.637118906E-1,-1.153313637E0,1.510364294E0
2.024705236E1,3.231477141E-1,-1.141401768E0,1.436907768E0
2.025705236E1,4.457789063E-1,-6.748533845E-1,1.335351467E0
2.026705236E1,7.932085395E-1,-1.160643995E-1,1.200961113E0
2.027705236E1,1.311527729E0,2.075414658E-1,1.127351761E0
