window_id,activity_id,activity_name,recording_folder,window_start_idx,window_start_time_s,window_end_time_s,acc_x,acc_y,acc_z,gyr_x,gyr_y,gyr_z
0,0,walking,0_walking,0,13.27925359,15.76925359,"[1.13419795, 1.272981644, 1.545763373, 1.709671736, 1.663609982, 1.330409408, 0.9439685345, 0.3744767308, 0.1010967568, -0.09631111473, -0.1028913707, 0.2500499785, 0.4606183469, 0.685543716, 0.6382854581, 0.107078813, -0.4199403822, -0.6406782866, -0.6514459848, -0.5850451589, -0.4121637046, -0.4683950245, -0.6538388133, -0.6867401004, -0.5192425251, -0.2991028428, -0.107078813, -0.1016949639, -0.2213360965, -0.2021935135, -0.1836491376, -0.09272187948, 0.05563312769, 0.1848455518, 0.2662015259, 0.07058826834, 0.09451649338, 0.151944235, 0.09032905847, -0.05324030295, -0.3128615618, -0.5054838061, -0.3876372576, -0.1447657645, 0.5048855543, 1.546361685, 2.389233351, 2.787638426, 2.895315409, 2.748156786, 2.930609465, 2.992224693, 2.657827854, 2.350948334, 2.215753794, 2.061416626, 1.625324726, 0.9738788009, 0.37986058, -0.2075773627, -0.6747759581, -0.4815555513, -0.9966106415, -0.06340979785, 0.9134600163, -0.1423729509, 1.721037745, 1.53080833, 0.6993024349, 0.3834498227, 0.6885347366, 1.716850281, 2.418545485, 3.383451223, 3.650849104, 1.96151638, 1.271785259, 0.9499505758, 0.9086744189, 0.6849454641, 0.4743770957, 0.4175475538, -0.04187439755, -0.4342973232, -0.6783652306, -0.8847461939, -1.067198873, -1.368694544, -1.469193101, -1.512263894, -1.401595831, -1.392024517, -1.338784218, -1.009771109, -0.6562315822, -0.05503492057, 0.604187727, 1.316650629, 2.067398787, 3.220739365, 4.130012035, 4.776073933, 4.771288395, 4.474578381, 4.058825493, 3.714857101, 3.355933666, 3.144767046, 3.086741209, 2.857030153, 2.652443886, 2.400599241, 1.24965167, -0.1369891018, -1.452443361, -1.844866276, -1.940579176, -1.668395638, -1.429113269, -1.171286702, -1.013360381, -0.8033902049, -0.6358926296, -0.5790630579, -0.6358926296, -0.8315058947, -1.016949654, -1.049252748, -1.063011408, -0.9667003751, -0.6125625968, -0.1776670814, 0.3864408433, 0.5916253924, 0.5826523304, 0.6927221417, 0.8835497499, 1.074377418, 1.265205026, 1.17906332, 1.293918848, 1.298106313, 1.178465128, 1.149153113, 1.090528965, 0.5742774606, -0.1764706671, -0.4540380836, -0.4301098585, -0.4295116663, -0.4671986103, -0.304486692, -0.1704886109, -0.1459621787, -0.1651047617, -0.1555334777, -0.01196411345, 0.1597209126, 0.5473581553, 0.8392825127, 1.00737834, 1.045663476, 0.9834501147, 0.8590233326, 0.7339983582, 0.5808576941, 0.5186443329, 0.6185446382, 0.8907282352, 1.301097274, 1.855633974, 2.267199516, 2.429911375, 2.440679073, 2.111067772, 1.556531072, 0.7639086246, 0.5724828243, 0.8787640929, 1.188634634, 1.158724308, 0.8841479421, 0.1794617027, -1.217946768, -2.193620205, -3.674179077, -5.004588604, -6.235097408, -6.510870457, -4.496711731, -2.231905222, -0.1932204217, 4.032504559, 6.847062111, 7.447660446, 5.87318325, 3.419941664, 2.827718258, 0.446859628, 1.507478237, 1.003789067, 0.1034895778, -0.3122633696, -0.2835494876, -0.5790630579, -1.06660068, -1.214357495, -1.362712502, -1.544566989, -1.478166223, -1.415952802, -1.1395818, -0.8530412912, -0.537786901, -0.2033899277, 0.02572284266, 0.4881358147, 1.295115232, 2.23130703, 3.202194929, 4.767100811, 6.19382143, 6.32363224, 5.218147755, 4.135993958, 3.002394199, 1.954337835, 0.8835497499, 0.2673979402, -0.04067798331, -0.5916253924, -1.436291814, -2.238485575, -2.506481647, -1.841875196, -0.8775677085, -0.4336991012, -0.4725824594, -0.3631108403, -0.4821537733, -0.7214360237, -0.6448656917, -0.3631108403, 0.004187439568, 0.3918247223, 0.5700899959, 0.4618147612, 0.171086818, -0.3960121572, -1.093519926]","[-7.896314621, -7.872386456, -8.32762146, -8.842676163, -10.03071213, -11.02552891, -11.31446171, -10.89332485, -10.35553837, -9.73340416, -9.407979965, -9.179466248, -9.083752632, -8.965308189, -8.900702477, -9.181859016, -9.661021233, -9.829116821, -10.07318497, -9.894321442, -9.815957069, -9.911071777, -9.815358162, -9.720842361, -9.664610863, -9.493523598, -9.399007797, -9.602396965, -9.631709099, -9.707681656, -9.725627899, -9.815957069, -9.892526627, -9.825528145, -9.864411354, -9.779465675, -9.664610863, -9.594022751, -9.548559189, -9.69093132, -9.76211834, -9.948160172, -10.51107121, -11.29531956, -11.64526939, -11.57109165, -11.66860008, -11.966506, -12.73938751, -13.39442253, -13.51585865, -13.03190994, -12.76451206, -12.4426775, -11.74516964, -10.99023438, -10.42851925, -9.926624298, -9.469595909, -9.213563919, -9.244669914, -9.437292099, -10.13121128, -9.769296646, -8.790632248, -9.37328434, -9.638887405, -9.957731247, -10.57627583, -10.4793663, -10.36271667, -10.20837975, -10.25085258, -10.07976532, -10.04088211, -10.15992451, -9.641280174, -9.644271851, -9.613762856, -9.254241943, -8.882157326, -8.47238636, -8.462217331, -8.32762146, -8.134400368, -8.056035995, -7.825128078, -7.709076405, -7.684549809, -7.709076405, -7.724031448, -7.902296543, -8.013563156, -8.035098076, -8.199007034, -8.309076309, -8.41077137, -8.917451859, -9.558130264, -10.02233791, -10.29212856, -10.77188969, -11.36471081, -11.57946682, -11.5764761, -11.33779144, -11.02193928, -10.77069283, -10.57208824, -10.82931709, -11.69312572, -12.62752342, -13.28794193, -13.46082401, -13.05882931, -12.21775246, -10.91306591, -9.69811058, -9.104690552, -8.721838951, -8.511270523, -8.285746574, -8.209176064, -8.05065155, -8.079963684, -8.106883049, -8.357531548, -8.639883995, -9.354740143, -10.18385315, -10.58166027, -10.64088249, -10.33041382, -9.668798447, -9.364909172, -9.341579437, -9.130413055, -8.937192917, -8.878568649, -9.097511292, -8.94377327, -8.919246674, -9.180662155, -9.388239861, -9.418149948, -9.522835732, -9.643673897, -9.414560318, -9.262018204, -9.34038353, -9.638887405, -9.486345291, -9.34815979, -9.324830055, -9.248857498, -9.477970123, -9.673583984, -9.87398243, -10.06540871, -10.1904335, -10.29751205, -10.45125103, -10.69472122, -10.89930725, -11.06501007, -11.16491032, -11.23549843, -11.24327564, -11.0309124, -10.73659515, -10.5732851, -11.00758266, -11.6021986, -11.90608692, -12.05204964, -12.0915308, -11.9276228, -11.80499077, -11.43171024, -10.82572746, -10.134202, -9.329017639, -8.739186287, -8.516056061, -8.928219795, -9.920044899, -11.3820591, -12.5365963, -12.67119217, -12.18185997, -11.08056355, -11.3760767, -10.92802143, -9.905089378, -9.487542152, -10.63669491, -10.63729286, -10.18744278, -9.778867722, -8.877969742, -9.409176826, -8.234899521, -7.429714203, -7.161718369, -7.112067223, -6.780661106, -6.256632805, -5.668596745, -5.467001438, -5.499304771, -5.574080467, -5.628517151, -5.761318684, -6.084948063, -6.498308182, -7.031309128, -7.96331358, -9.113064766, -10.28016472, -11.34078312, -12.887743, -13.63729477, -13.7730875, -13.22094345, -12.33918858, -11.16670513, -10.44407272, -10.40159988, -11.35693455, -12.97747326, -14.17567921, -14.43589878, -14.1439743, -12.98764324, -11.70090294, -9.870991707, -8.52981472, -7.887341499, -7.335197926, -7.183851719, -7.65703249, -7.843672752, -7.855038643, -7.809575081, -8.001000404, -8.469993591, -9.159127235, -9.742377281, -10.50329494, -10.77906799]","[-0.09571290761, -0.08075776696, 0.003589233849, 0.5419743061, 1.467996716, 2.059023857, 2.33838582, 2.209771633, 1.890928149, 1.118644595, 0.4073780477, -0.1262213886, -0.1250249892, 0.1399801224, 0.509073019, 0.1938186288, -0.4815555513, -1.192223907, -2.002792597, -2.279163599, -1.765903115, -1.101296663, -0.3445664644, -0.1333998591, 0.0783649385, 0.2237289101, 0.4983053207, 0.8177471161, 0.9080761671, 0.8644071817, 0.6299105883, 0.6005984545, 0.5533402562, 0.6113662124, 0.7118647099, 0.888933599, 0.8949156404, 1.039083242, 1.4267205, 1.248455167, 0.3559323549, -0.536590457, -1.540379524, -2.397010088, -2.976073265, -3.253640652, -2.772683144, -1.838884234, -0.6849454641, -0.04307080805, 0.2440679073, 0.228514567, 0.2715853751, -0.01914258115, -0.55154562, -1.160519004, -1.512862086, -2.216351986, -2.670390129, -2.335993052, -1.284347534, -0.3176472187, 0.3224328458, 0.7782655358, 1.990230203, 2.480758905, 1.542772412, 1.975873351, 2.102692842, 1.834098577, 1.615753531, 1.529611826, 0.784845829, 0.3972085714, 0.2644068897, -0.7962117195, -1.169492126, -2.200200319, -1.012762189, -0.3260220885, -0.2051845491, 0.09930214286, -0.1088734269, -0.2578266263, -0.5449653864, -0.8129615188, -1.032503009, -1.258026481, -1.411765337, -1.292124271, -1.14795661, -0.9912267923, -0.8195417523, -1.11984098, -1.617548108, -2.386840582, -2.77746892, -2.830709219, -2.870190859, -2.68713975, -2.287538528, -2.024926186, -2.09072876, -2.232503414, -2.061416626, -1.94177556, -2.056032896, -2.380858421, -2.796013355, -2.976073265, -2.718844652, -1.763510346, -1.197607756, -1.217946768, -1.431506157, -1.250249863, -0.97926265, -0.8985049129, -0.8315058947, -0.7752745152, -0.7734799385, -0.8428717852, -0.851246655, -0.8979067206, -0.8410771489, -0.3296113312, -0.08315058798, 0.614357233, 0.9541380405, 1.159920812, 1.216750264, 0.8727820516, 1.006181955, 0.8392825127, 1.257428288, 1.368096352, 1.313061476, 1.051645517, 0.851246655, 0.6580262184, 0.6167500615, 0.4827519655, 0.1932204217, -0.2679961324, -0.9002995491, -1.070788145, -0.993021369, -0.9254241586, -0.8189435601, -0.546759963, -0.2470589429, -0.08255238086, -0.0382851623, 0.1010967568, 0.2213360965, 0.07118647546, 0.03230310604, -0.02093719877, 0.02213360928, 0.171086818, 0.4199403822, 0.5294120312, 0.4462614357, 0.2338984162, -0.06460621208, -0.228514567, -0.4307080805, -0.6837490797, -0.9260223508, -1.233500123, -1.264008522, -1.360917926, -1.220339537, -0.8249256015, -0.4390829504, -0.3266202807, 0.1310070455, 0.3607180119, 0.3882354796, 0.0197407864, -0.3541377485, -1.326820135, -2.374278307, -3.077768087, -3.102892876, -2.315654039, -0.6634100676, 0.8566305041, 1.697707653, 2.580060959, 2.035693884, 2.855235577, 2.142174482, 1.216152072, 0.2919243574, -3.59043026, -3.815355778, -3.105883837, -2.973680258, -2.992822886, -1.551745534, -1.90229404, -1.386640668, -1.384846091, -0.9732806087, -0.5186443329, -0.1471585929, -0.07178468257, -0.142971158, -0.3445664644, -0.6317051649, -0.9900303483, -1.191027522, -1.469791293, -1.892124534, -2.349751949, -3.235096216, -4.388436794, -5.158327579, -5.324030399, -4.930410862, -4.255036831, -4.006183147, -4.43808794, -4.776073933, -4.840082169, -4.969294548, -5.044668198, -4.698905468, -3.474976778, -1.808375716, -0.851246655, -0.2153540403, 0.102293171, 0.27577281, 0.1184447184, -0.06281159073, -0.2404786795, -0.4426721931, -0.2362912297, -0.3553341627, -0.3128615618, -0.7190431952, -1.11445713, -0.9996016622, -0.2548356056, 0.4301098585, 1.104885817, 1.749153376, 2.14696002]","[-0.02000583708, -0.02000583708, -0.04596760869, -0.06490442902, 0.002290744567, 0.09147707373, 0.2278527319, 0.3564398587, 0.4819726646, 0.5784893632, 0.681420207, 0.7115052938, 0.6739370823, 0.6459900141, 0.6707300544, 0.7295258045, 0.7660250068, 0.7560984492, 0.6956228018, 0.5488623977, 0.3611740768, 0.2101376504, 0.1368338168, 0.07040221989, 0.02183843218, -0.009773843922, -0.03176499158, -0.03283400834, -0.005955935922, 0.03711006418, 0.09193521738, 0.12996158, 0.1592831165, 0.1637118906, 0.1522581577, 0.1324050426, 0.116217114, 0.1449277848, 0.2422080636, 0.4031710625, 0.5261076689, 0.6046038866, 0.5734497309, 0.4349360466, 0.2521346211, -0.06551529467, -0.4030183554, -0.6850853562, -0.8429940343, -0.9060658813, -0.9729556441, -1.036332846, -1.069930434, -1.085049391, -1.129642606, -1.231351614, -1.352608323, -1.497077942, -1.793500304, -2.100307465, -2.282497883, -2.301892996, -2.193006277, -1.991115212, -1.740355134, -1.373530507, -1.145677805, -0.8506298661, -0.6632469296, -0.4831944108, -0.2273945808, -0.00320704258, 0.2041817009, 0.3584251702, 0.5178610086, 0.6084218025, 0.6565274, 0.762970686, 0.7980954647, 0.8703302741, 0.9224064946, 0.9237809777, 0.968221426, 1.048092008, 1.093448758, 1.119257808, 1.13559854, 1.105818868, 1.040914416, 0.9237809777, 0.7962628603, 0.6873761415, 0.5745187402, 0.4908302128, 0.4228714705, 0.3669773042, 0.3123048544, 0.2725986242, 0.2449569702, 0.2109012306, 0.1687515229, 0.1488984078, 0.1291979998, 0.1404990107, 0.1942551434, 0.2866485119, 0.362090379, 0.4312708676, 0.479834646, 0.51572299, 0.5239696503, 0.5332853794, 0.5506950021, 0.5797111392, 0.6273586154, 0.6475171447, 0.6520986557, 0.6382014751, 0.5925393105, 0.5598580241, 0.5366451144, 0.5215262175, 0.4989241958, 0.4085161388, 0.2776382565, 0.08185594529, -0.06627888232, -0.1579086632, -0.1553124934, -0.1107193232, -0.03481931984, 0.08781187981, 0.1835650057, 0.2751947939, 0.315053761, 0.3788891733, 0.4624249935, 0.5334380865, 0.6517932415, 0.7626652718, 0.8463537693, 0.9253081083, 1.010676503, 1.082605958, 1.076497316, 1.016937971, 0.9048441648, 0.7683157325, 0.6160575747, 0.4833471179, 0.4108068645, 0.3758348525, 0.3654501438, 0.3636175394, 0.3532328308, 0.3364340365, 0.3254384696, 0.2977968156, 0.2631302178, 0.248011291, 0.2732094824, 0.3362813294, 0.4208861589, 0.4720461071, 0.4923573732, 0.4589125216, 0.4085161388, 0.3733913898, 0.3454442918, 0.2952006161, 0.1737911552, 0.01359175146, -0.09834930301, -0.2290744632, -0.3836233616, -0.5403103232, -0.6777549982, -0.8239045143, -0.9271407127, -1.08611846, -1.357189894, -1.579239368, -1.81946218, -2.119396925, -2.411543369, -2.585639954, -2.675742388, -2.550973177, -2.233170509, -1.764331579, -1.270294309, -0.8329147696, -0.4529565871, -0.2144137025, -0.1980730593, -0.2064724565, -0.4080579877, -0.5479460955, -0.542753756, -0.5923865438, -0.5221370459, -0.4109596014, -0.3672827184, -0.295353353, -0.2145664245, -0.1342376322, -0.06780604273, -0.01221730467, 0.06597344577, 0.1488984078, 0.2251038402, 0.2825251818, 0.3263547719, 0.3866777122, 0.4586070776, 0.5369505286, 0.5916230083, 0.6323982477, 0.6126978397, 0.5264131427, 0.4147774875, 0.2443460971, 0.08093964309, -0.02580905706, -0.03817907721, 0.002290744567, 0.02748893574, 0.03054326214, 0.05818491429, 0.07803803682, 0.09773843735, 0.1348485053, 0.1991420686, 0.3022255898, 0.3758348525, 0.369726181, 0.3006984293, 0.2489275932, 0.2197587788, 0.2118175179, 0.2309070677, 0.2631302178, 0.2805398703, 0.2464841306, 0.113926366, -0.0109955743, -0.08109235764, -0.07712173462, 0.01175915636, 0.1750128865]","[-2.94895196, -2.94895196, -3.280040979, -3.568216562, -3.54149127, -3.275154114, -2.72613883, -2.138333797, -1.718669415, -1.561829686, -1.545947194, -1.600619674, -1.646129131, -1.681712031, -1.699732542, -1.577559471, -1.427744746, -1.295797944, -1.26250577, -1.31610918, -1.437518597, -1.543656468, -1.58382082, -1.557859063, -1.502270341, -1.410946012, -1.303433776, -1.209055066, -1.077566266, -0.9816604257, -0.9332493544, -0.9367618561, -0.9108000994, -0.8765916228, -0.8362745047, -0.8060367107, -0.7904596329, -0.8329147696, -0.8671231866, -0.7680103183, -0.668286562, -0.550542295, -0.3950771093, -0.3058907688, -0.3130684495, -0.3404046595, -0.4631885588, -0.6157521605, -0.669508338, -0.6348416805, -0.5810855627, -0.5186246037, -0.487775892, -0.4593706727, -0.4337143302, -0.4502076805, -0.4865541756, -0.4080579877, -0.2611449063, -0.1600466967, -0.228310883, -0.3671300113, -0.5534439087, -0.9341656566, -1.421636105, -1.625359654, -1.464702129, -1.630704761, -1.37032342, -0.9859365225, -0.9071348906, -0.9841039181, -0.9821186066, -0.9535606503, -0.9505063295, -0.9193521738, -1.16705811, -1.577254057, -2.093435287, -2.301129341, -2.346486092, -2.342515469, -2.248442173, -2.122145891, -2.002263546, -1.881617665, -1.790446043, -1.750128984, -1.75913918, -1.810604572, -1.816713214, -1.731955647, -1.499826908, -1.251204729, -0.9876163602, -0.8093964458, -0.7402159572, -0.7134906054, -0.653778553, -0.5743660331, -0.4211915731, -0.291077286, -0.1791362315, -0.2081523389, -0.2991712391, -0.3336851299, -0.259465009, -0.07009678334, 0.09330966324, 0.1805106848, 0.2157881409, 0.2669481039, 0.3623957932, 0.4161519408, 0.3326161206, 0.1646281779, -0.02061670274, -0.1052215397, -0.08704829961, -0.022143865, 0.07864890248, 0.1142318025, 0.03817907721, -0.1087340117, -0.2698497176, -0.5482515693, -0.8052731156, -0.9576839805, -0.8501716852, -0.6540839672, -0.4132503271, -0.1728748679, -0.05894849449, 0.0971275717, 0.1421788931, 0.2503020465, 0.3452915847, 0.3663664162, 0.3132211566, 0.263741076, 0.2515237629, 0.3260493279, 0.4839579761, 0.6527095437, 0.7548767328, 0.6992880106, 0.6099489331, 0.5273294449, 0.4137084782, 0.3210096955, 0.3274237812, 0.397673279, 0.4560109079, 0.5010622144, 0.5619960427, 0.6375905871, 0.633467257, 0.5874996781, 0.5035057068, 0.428521961, 0.3602577746, 0.3280346394, 0.3342960179, 0.3622430861, 0.409432441, 0.4302018583, 0.4332561791, 0.3996585906, 0.366061002, 0.3568980098, 0.3492622077, 0.3979786932, 0.4169155359, 0.4628831446, 0.543211937, 0.5977316499, 0.5896376967, 0.5910121202, 0.5928447247, 0.6455318332, 0.7238753438, 0.8113817573, 0.8866708875, 1.019992232, 1.117730737, 1.101390004, 1.03297317, 0.9590584636, 0.7652614117, 0.4543310404, 0.1982257664, 0.1744020283, 0.4576907754, 0.8724682927, 1.374752283, 1.682780981, 1.358411551, 0.9036223888, 0.5416847467, 0.04703662544, -0.6620252132, -1.053284407, -1.351081252, -1.521207213, -1.714393258, -1.762193561, -1.645976424, -1.447597861, -1.162171125, -0.8828529716, -0.6501133442, -0.5007568002, -0.4531092942, -0.460439682, -0.5227479339, -0.6056728959, -0.6740897894, -0.8014551997, -0.916908741, -0.8807149529, -0.6742424965, -0.2493857294, 0.1954768747, 0.5045747161, 0.5138903856, 0.389732033, 0.2159408629, 0.05253441259, -0.1096503139, -0.224187538, -0.3316998184, -0.3530801237, -0.3862195611, -0.3662137091, -0.2509129047, 0.09422596544, 0.456469059, 0.6979135275, 0.7790058851, 0.7166976333, 0.5389358401, 0.2852740586, 0.05467243865, -0.3092505336, -0.7599163651, -1.135293007, -1.241125464, -1.152549982, -0.9818131924, -0.7489207983]","[0.1727221459, 0.1727221459, 0.125838235, 0.1084285825, 0.04993823543, -0.03665191308, -0.1695151031, -0.2434297949, -0.2719877362, -0.287106663, -0.2933680415, -0.322995007, -0.3744603992, -0.4039346576, -0.4297437072, -0.4560109079, -0.4271475375, -0.3605632186, -0.3003929853, -0.2199114859, -0.1469130963, -0.1069014147, -0.07528914511, -0.02382374369, 0.03390302137, 0.07116580009, 0.08643743396, 0.08689557761, 0.09239336848, 0.1185078546, 0.1443169117, 0.1722639948, 0.2017382532, 0.2287690341, 0.2386955917, 0.2573269904, 0.2817615867, 0.2777909636, 0.2249511331, 0.1348485053, 0.07666359097, 0.01970040426, -0.01847867295, -0.01282817032, 0.04612032697, 0.1295034289, 0.1550070494, 0.1241583601, 0.007024950348, -0.1710422635, -0.29138273, -0.3849978149, -0.4946481287, -0.5749769211, -0.6493497491, -0.7347181439, -0.8359690905, -0.9121745229, -1.021977544, -1.089325428, -1.078329921, -1.059545755, -1.081536889, -0.9764680862, -1.002735257, -1.133765936, -1.130864263, -1.32282865, -1.470658064, -1.448056102, -1.439656615, -1.484402537, -1.649488926, -1.840078831, -2.081981421, -2.198045969, -2.106568813, -1.972331166, -1.900554538, -1.887268186, -1.786170006, -1.617723942, -1.465923905, -1.309084177, -1.174235702, -1.008843899, -0.8374962807, -0.6479753256, -0.4807509482, -0.275652945, -0.08139779419, 0.0853684172, 0.2368630022, 0.326202035, 0.4120286107, 0.460745126, 0.4636467099, 0.4418082833, 0.4300491214, 0.4097378552, 0.3495676219, 0.2770273983, 0.1788308024, 0.1163698286, 0.08032877743, 0.07391469181, 0.09132435173, 0.1313360333, 0.1699732542, 0.2167044431, 0.2693915665, 0.3428481221, 0.4239404798, 0.5181664228, 0.6287330389, 0.6779077053, 0.6963863969, 0.6837109327, 0.6241515875, 0.5671883821, 0.4932736754, 0.4470006526, 0.4100432992, 0.4143193662, 0.4576907754, 0.5334380865, 0.6152940392, 0.7110471725, 0.7874053121, 0.8761335015, 0.935998261, 0.9492846131, 0.9253081083, 0.8271115422, 0.7319692969, 0.6055201888, 0.4386012554, 0.322689563, 0.1915062517, 0.05925392732, -0.005650503561, -0.01634064503, -0.02061670274, -0.03329215571, -0.1033889428, -0.1476766765, -0.1685988009, -0.1383609772, -0.07024950534, -0.002290744567, 0.04428773001, 0.1204931661, 0.1988366395, 0.2504547536, 0.2800817192, 0.3294090927, 0.3915646076, 0.4439463317, 0.483805269, 0.4918992519, 0.4720461071, 0.4277583957, 0.3544545472, 0.2861903608, 0.2179261744, 0.1791362315, 0.1828014255, 0.204639852, 0.2264782935, 0.2461786866, 0.2573269904, 0.2211332172, 0.1324050426, -0.01618792862, -0.2156354338, -0.4250094891, -0.5627595782, -0.6711881757, -0.7502952218, -0.8327620625, -0.9344711304, -1.015410781, -1.131780624, -1.234405994, -1.312596679, -1.369865298, -1.363909364, -1.280373573, -1.070694089, -0.8863654733, -0.8043568134, -0.7124215961, -0.6273586154, -0.8819366693, -1.230893493, -1.536784291, -1.573588848, -1.426828504, -1.362993121, -1.137125611, -1.149648428, -1.114065528, -1.035263896, -0.9618073106, -0.8738427162, -0.7325801253, -0.5429064631, -0.3953825235, -0.208457768, -0.01420261711, 0.1724167168, 0.3391829133, 0.4529565871, 0.574824214, 0.6708827615, 0.7519751191, 0.8101600409, 0.8558222055, 0.8539896011, 0.8129089475, 0.7092145681, 0.476169467, 0.1870774776, -0.05894849449, -0.2176207453, -0.2890919745, -0.3011565804, -0.236099422, -0.1123992056, 0.02122756653, 0.2159408629, 0.3830125034, 0.51572299, 0.6548475623, 0.7713701129, 0.8634580374, 0.8509352803, 0.7582364678, 0.6843217611, 0.6327036619, 0.6550002694, 0.7145596147, 0.7644978762, 0.8665123582, 0.9595165849, 0.9699012637, 0.9181304574, 0.8637634516, 0.7619016767, 0.6603453159]"
1,0,walking,0_walking,125,14.52925359,17.01925359,"[-0.8315058947, -1.016949654, -1.049252748, -1.063011408, -0.9667003751, -0.6125625968, -0.1776670814, 0.3864408433, 0.5916253924, 0.5826523304, 0.6927221417, 0.8835497499, 1.074377418, 1.265205026, 1.17906332, 1.293918848, 1.298106313, 1.178465128, 1.149153113, 1.090528965, 0.5742774606, -0.1764706671, -0.4540380836, -0.4301098585, -0.4295116663, -0.4671986103, -0.304486692, -0.1704886109, -0.1459621787, -0.1651047617, -0.1555334777, -0.01196411345, 0.1597209126, 0.5473581553, 0.8392825127, 1.00737834, 1.045663476, 0.9834501147, 0.8590233326, 0.7339983582, 0.5808576941, 0.5186443329, 0.6185446382, 0.8907282352, 1.301097274, 1.855633974, 2.267199516, 2.429911375, 2.440679073, 2.111067772, 1.556531072, 0.7639086246, 0.5724828243, 0.8787640929, 1.188634634, 1.158724308, 0.8841479421, 0.1794617027, -1.217946768, -2.193620205, -3.674179077, -5.004588604, -6.235097408, -6.510870457, -4.496711731, -2.231905222, -0.1932204217, 4.032504559, 6.847062111, 7.447660446, 5.87318325, 3.419941664, 2.827718258, 0.446859628, 1.507478237, 1.003789067, 0.1034895778, -0.3122633696, -0.2835494876, -0.5790630579, -1.06660068, -1.214357495, -1.362712502, -1.544566989, -1.478166223, -1.415952802, -1.1395818, -0.8530412912, -0.537786901, -0.2033899277, 0.02572284266, 0.4881358147, 1.295115232, 2.23130703, 3.202194929, 4.767100811, 6.19382143, 6.32363224, 5.218147755, 4.135993958, 3.002394199, 1.954337835, 0.8835497499, 0.2673979402, -0.04067798331, -0.5916253924, -1.436291814, -2.238485575, -2.506481647, -1.841875196, -0.8775677085, -0.4336991012, -0.4725824594, -0.3631108403, -0.4821537733, -0.7214360237, -0.6448656917, -0.3631108403, 0.004187439568, 0.3918247223, 0.5700899959, 0.4618147612, 0.171086818, -0.3960121572, -1.093519926, -1.336989641, -1.011565804, -0.6532405615, -0.2009970993, 0.1848455518, 0.656829834, 1.435095429, 1.607378602, 1.329213023, 1.228116274, 1.094118118, 1.103689432, 1.002592683, 0.6825526357, 0.171086818, -0.1585244983, -0.3780659735, -0.3726821244, -0.3200400174, -0.1525424421, -0.02273181453, 0.1208375469, 0.2644068897, 0.4462614357, 0.6179464459, 0.7806583643, 0.9290133715, 1.005583763, 1.024726272, 0.9152546525, 0.8530412912, 0.733400166, 0.5946164131, 0.432502687, 0.3756731451, 0.4761717021, 0.7579265833, 1.063609719, 1.623530149, 1.728216171, 1.737787485, 1.818545222, 1.622333765, 1.105484009, 0.7668996453, 0.6191428304, 0.6957131624, 1.030110121, 1.426122308, 1.615155339, 1.57866478, 0.3912265003, -1.710868239, -3.017947674, -3.909872293, -4.127619267, -3.704089403, -2.894717216, -0.4432703853, 1.738385677, 4.027718544, 5.078765869, 5.019543648, 4.081557274, 2.545963287, 1.567298889, 0.9888339639, 0.5389832854, 0.3996013701, 0.2751746178, 0.06041877344, 0.1244267747, -1.098903775, -1.739582062, -1.893320918, -2.108076811, -2.409572363, -2.600998163, -2.405385017, -1.946561217, -1.272981644, -0.837487936, -0.5030909777, -0.1256231815, 0.1704886109, 0.7244270444, 1.163509965, 1.53080833, 1.898704767, 3.017349243, 4.802394867, 6.686742783, 7.409375191, 6.089135647, 4.391427994, 3.589233875, 2.297708035, 1.220937729, 0.5898307562, 0.2237289101, -0.8542376757, -2.129014015, -3.70050025, -3.905086517, -3.518047571, -2.840878725, -2.995215654, -3.293720484, -2.726023197, -1.884347796, -0.9619147182, 0.2237289101, 1.265205026, 2.02073884, 2.437688112, 2.373081923, 1.514058471, 0.5682953596, -0.2584248483, -0.6831508875, -1.161117196, -1.289731383, -1.262213945, -1.11445713, -0.9469595551]","[-8.106883049, -8.357531548, -8.639883995, -9.354740143, -10.18385315, -10.58166027, -10.64088249, -10.33041382, -9.668798447, -9.364909172, -9.341579437, -9.130413055, -8.937192917, -8.878568649, -9.097511292, -8.94377327, -8.919246674, -9.180662155, -9.388239861, -9.418149948, -9.522835732, -9.643673897, -9.414560318, -9.262018204, -9.34038353, -9.638887405, -9.486345291, -9.34815979, -9.324830055, -9.248857498, -9.477970123, -9.673583984, -9.87398243, -10.06540871, -10.1904335, -10.29751205, -10.45125103, -10.69472122, -10.89930725, -11.06501007, -11.16491032, -11.23549843, -11.24327564, -11.0309124, -10.73659515, -10.5732851, -11.00758266, -11.6021986, -11.90608692, -12.05204964, -12.0915308, -11.9276228, -11.80499077, -11.43171024, -10.82572746, -10.134202, -9.329017639, -8.739186287, -8.516056061, -8.928219795, -9.920044899, -11.3820591, -12.5365963, -12.67119217, -12.18185997, -11.08056355, -11.3760767, -10.92802143, -9.905089378, -9.487542152, -10.63669491, -10.63729286, -10.18744278, -9.778867722, -8.877969742, -9.409176826, -8.234899521, -7.429714203, -7.161718369, -7.112067223, -6.780661106, -6.256632805, -5.668596745, -5.467001438, -5.499304771, -5.574080467, -5.628517151, -5.761318684, -6.084948063, -6.498308182, -7.031309128, -7.96331358, -9.113064766, -10.28016472, -11.34078312, -12.887743, -13.63729477, -13.7730875, -13.22094345, -12.33918858, -11.16670513, -10.44407272, -10.40159988, -11.35693455, -12.97747326, -14.17567921, -14.43589878, -14.1439743, -12.98764324, -11.70090294, -9.870991707, -8.52981472, -7.887341499, -7.335197926, -7.183851719, -7.65703249, -7.843672752, -7.855038643, -7.809575081, -8.001000404, -8.469993591, -9.159127235, -9.742377281, -10.50329494, -10.77906799, -10.57029438, -10.11685371, -9.51745224, -9.008976936, -8.803792953, -9.079565048, -8.989236832, -8.930612564, -8.967103004, -8.754739761, -8.840283394, -9.169296265, -9.17109108, -9.259027481, -9.537791252, -9.714859962, -9.787840843, -9.69452095, -9.653244972, -9.663414001, -9.649655342, -9.836894035, -9.933204651, -9.904491425, -9.794421196, -9.731609344, -9.674181938, -9.731609344, -9.808777809, -9.919445992, -10.00139999, -10.06839943, -10.09232807, -10.1844511, -10.33340454, -10.52004433, -10.69711399, -10.523036, -10.79521942, -11.10987568, -11.66381359, -12.16331577, -12.19143105, -12.21535969, -12.18365479, -12.24885941, -12.06341553, -11.30608654, -10.64327526, -9.554540634, -9.046664238, -8.797212601, -9.45583725, -10.18505001, -11.1936245, -12.09452248, -12.50249863, -12.19083309, -11.13679504, -10.89033413, -10.53260708, -9.332606316, -9.040083885, -9.27278614, -9.470791817, -9.359525681, -9.355937004, -8.956933022, -9.189635277, -9.025128365, -8.363512993, -8.036892891, -7.801798344, -7.443472862, -7.23230648, -7.226922512, -7.051050186, -6.71964407, -6.59342289, -6.601797581, -6.467201233, -6.232106686, -6.20758009, -6.320641041, -6.716054916, -7.5924263, -9.093324661, -11.10509014, -12.83330631, -14.71047497, -15.39721584, -14.35514164, -13.42493153, -12.03829098, -10.30528927, -8.800203323, -8.184051514, -8.61655426, -9.666405678, -11.67637634, -13.08275795, -14.29053497, -15.01974773, -14.55554008, -12.57667542, -10.26700401, -8.961120605, -8.452646255, -8.266604424, -8.173882484, -8.153543472, -8.199604988, -8.062017441, -7.893323898, -8.007580757, -8.803792953, -9.889535904, -10.58345413, -10.88734341, -10.55952644, -10.35613632, -9.965508461, -9.331410408, -8.851051331, -8.927620888]","[-0.3296113312, -0.08315058798, 0.614357233, 0.9541380405, 1.159920812, 1.216750264, 0.8727820516, 1.006181955, 0.8392825127, 1.257428288, 1.368096352, 1.313061476, 1.051645517, 0.851246655, 0.6580262184, 0.6167500615, 0.4827519655, 0.1932204217, -0.2679961324, -0.9002995491, -1.070788145, -0.993021369, -0.9254241586, -0.8189435601, -0.546759963, -0.2470589429, -0.08255238086, -0.0382851623, 0.1010967568, 0.2213360965, 0.07118647546, 0.03230310604, -0.02093719877, 0.02213360928, 0.171086818, 0.4199403822, 0.5294120312, 0.4462614357, 0.2338984162, -0.06460621208, -0.228514567, -0.4307080805, -0.6837490797, -0.9260223508, -1.233500123, -1.264008522, -1.360917926, -1.220339537, -0.8249256015, -0.4390829504, -0.3266202807, 0.1310070455, 0.3607180119, 0.3882354796, 0.0197407864, -0.3541377485, -1.326820135, -2.374278307, -3.077768087, -3.102892876, -2.315654039, -0.6634100676, 0.8566305041, 1.697707653, 2.580060959, 2.035693884, 2.855235577, 2.142174482, 1.216152072, 0.2919243574, -3.59043026, -3.815355778, -3.105883837, -2.973680258, -2.992822886, -1.551745534, -1.90229404, -1.386640668, -1.384846091, -0.9732806087, -0.5186443329, -0.1471585929, -0.07178468257, -0.142971158, -0.3445664644, -0.6317051649, -0.9900303483, -1.191027522, -1.469791293, -1.892124534, -2.349751949, -3.235096216, -4.388436794, -5.158327579, -5.324030399, -4.930410862, -4.255036831, -4.006183147, -4.43808794, -4.776073933, -4.840082169, -4.969294548, -5.044668198, -4.698905468, -3.474976778, -1.808375716, -0.851246655, -0.2153540403, 0.102293171, 0.27577281, 0.1184447184, -0.06281159073, -0.2404786795, -0.4426721931, -0.2362912297, -0.3553341627, -0.3128615618, -0.7190431952, -1.11445713, -0.9996016622, -0.2548356056, 0.4301098585, 1.104885817, 1.749153376, 2.14696002, 2.367697954, 2.630310297, 2.535195589, 1.649253011, 0.9625129104, -0.004187439568, -0.5563312769, -0.7328019142, -0.9876375198, -1.331605792, -1.418943882, -1.62652123, -2.100898266, -1.829911113, -1.733001828, -1.783251047, -1.640878081, -1.276570916, -0.9984052777, -0.8350951076, -0.7339983582, -0.5958128572, -0.5288137794, -0.4701896608, -0.4785645306, -0.5730810165, -0.4863412082, -0.5389832854, -0.4336991012, -0.3056831062, -0.2632105052, -0.2500499785, -0.2697907388, -0.08913264424, -0.008973085321, 0.004785645287, 0.004785645287, -0.1794617027, -0.2273181528, -0.4348955154, -0.6538388133, -1.030110121, -1.194018483, -1.281954765, -1.019940615, -0.5946164131, -0.3487538993, -0.4815555513, -0.8781659007, -1.914258122, -3.510869026, -4.500301361, -3.578466177, -2.008176327, -0.8015955687, 0.1543370634, 1.91066885, 2.66739893, 2.090130568, 2.727219582, 2.412563324, 1.983649969, 1.171286702, -2.267199516, -2.930011272, -1.70249331, -1.613958836, -2.015354872, -2.237887383, -2.529213428, -2.07098794, -0.6849454641, -0.1896311939, -0.1806581169, -0.299701035, -0.3768695593, -0.3098705411, -0.4426721931, -0.6993024349, -0.822532773, -0.8763712645, -0.8925228715, -0.9529415965, -1.153340459, -1.399203062, -2.048854351, -3.009572744, -4.223331928, -4.883750916, -5.274379253, -4.707280159, -4.219144344, -3.63589406, -3.637090445, -3.158525944, -2.179861546, -2.070389748, -2.729014158, -3.26440835, -2.579462767, -1.290329576, -0.4983053207, 0.3529413342, 1.130608678, 1.508674622, 1.176670551, 0.5425725579, -0.446859628, -1.066002488, -1.200598717, -1.307079315, -1.432104349, -1.858624935, -1.993221283, -1.274178028, -0.1974078715, 0.2907279432, 0.9864411354, 1.24965167, 1.546959877, 1.871785522, 2.175673962, 1.762912035, 1.47457695, 1.5224334]","[0.08185594529, -0.06627888232, -0.1579086632, -0.1553124934, -0.1107193232, -0.03481931984, 0.08781187981, 0.1835650057, 0.2751947939, 0.315053761, 0.3788891733, 0.4624249935, 0.5334380865, 0.6517932415, 0.7626652718, 0.8463537693, 0.9253081083, 1.010676503, 1.082605958, 1.076497316, 1.016937971, 0.9048441648, 0.7683157325, 0.6160575747, 0.4833471179, 0.4108068645, 0.3758348525, 0.3654501438, 0.3636175394, 0.3532328308, 0.3364340365, 0.3254384696, 0.2977968156, 0.2631302178, 0.248011291, 0.2732094824, 0.3362813294, 0.4208861589, 0.4720461071, 0.4923573732, 0.4589125216, 0.4085161388, 0.3733913898, 0.3454442918, 0.2952006161, 0.1737911552, 0.01359175146, -0.09834930301, -0.2290744632, -0.3836233616, -0.5403103232, -0.6777549982, -0.8239045143, -0.9271407127, -1.08611846, -1.357189894, -1.579239368, -1.81946218, -2.119396925, -2.411543369, -2.585639954, -2.675742388, -2.550973177, -2.233170509, -1.764331579, -1.270294309, -0.8329147696, -0.4529565871, -0.2144137025, -0.1980730593, -0.2064724565, -0.4080579877, -0.5479460955, -0.542753756, -0.5923865438, -0.5221370459, -0.4109596014, -0.3672827184, -0.295353353, -0.2145664245, -0.1342376322, -0.06780604273, -0.01221730467, 0.06597344577, 0.1488984078, 0.2251038402, 0.2825251818, 0.3263547719, 0.3866777122, 0.4586070776, 0.5369505286, 0.5916230083, 0.6323982477, 0.6126978397, 0.5264131427, 0.4147774875, 0.2443460971, 0.08093964309, -0.02580905706, -0.03817907721, 0.002290744567, 0.02748893574, 0.03054326214, 0.05818491429, 0.07803803682, 0.09773843735, 0.1348485053, 0.1991420686, 0.3022255898, 0.3758348525, 0.369726181, 0.3006984293, 0.2489275932, 0.2197587788, 0.2118175179, 0.2309070677, 0.2631302178, 0.2805398703, 0.2464841306, 0.113926366, -0.0109955743, -0.08109235764, -0.07712173462, 0.01175915636, 0.1750128865, 0.3492622077, 0.5067127347, 0.7276932001, 0.897208333, 0.9863946438, 1.088867307, 1.153924465, 1.222035885, 1.234711409, 1.207222462, 1.193325281, 1.151786447, 1.056185961, 0.8999572396, 0.8006916046, 0.6902777553, 0.5697845817, 0.4457789063, 0.3370448947, 0.2793181241, 0.2313652188, 0.2118175179, 0.224187538, 0.2388483137, 0.2521346211, 0.2486221492, 0.2270891517, 0.1873829067, 0.1539380401, 0.1241583601, 0.1114829108, 0.1145372316, 0.1247692257, 0.1227839142, 0.1302670091, 0.1514945775, 0.1800525337, 0.224492982, 0.2437352389, 0.220216915, 0.1951714456, 0.1580613852, 0.03375030309, -0.1620320082, -0.4024074674, -0.5778785348, -0.7254024744, -0.8694139719, -1.085507512, -1.355815411, -1.626428723, -2.056325197, -2.424829483, -2.574033499, -2.511725187, -2.303267479, -1.978592515, -1.53892231, -1.168279767, -0.8271115422, -0.4891503453, -0.2518292069, -0.1563815027, -0.1488984078, -0.2220495194, -0.2133446932, -0.04016438872, 0.0736092627, 0.1884519309, 0.25167647, 0.1898263693, 0.1699732542, 0.224492982, 0.2539672256, 0.279165417, 0.3211624026, 0.354149133, 0.4092797041, 0.4321871698, 0.4068362415, 0.3802636266, 0.3573561609, 0.3607159257, 0.3862195611, 0.4352414906, 0.4867068827, 0.5508477092, 0.5920811296, 0.5302310586, 0.3856086731, 0.1388191283, -0.06704246253, -0.1061378345, -0.02260201424, 0.04550946131, 0.1638645977, 0.2359467, 0.2141082734, 0.1678352207, 0.1255328059, 0.1711949855, 0.2490803003, 0.3346014321, 0.4439463317, 0.5064072609, 0.5563455224, 0.6417139173, 0.6921103001, 0.7420485616, 0.7764097452, 0.7687739134, 0.6948592067, 0.5467243791, 0.3202461004, 0.05558873713, -0.1175915599, -0.2058615834, -0.2626720667, -0.1774563491, -0.01496619824, 0.1287398487, 0.3170390725, 0.5184718966, 0.6163630486, 0.6772968173]","[-0.5482515693, -0.8052731156, -0.9576839805, -0.8501716852, -0.6540839672, -0.4132503271, -0.1728748679, -0.05894849449, 0.0971275717, 0.1421788931, 0.2503020465, 0.3452915847, 0.3663664162, 0.3132211566, 0.263741076, 0.2515237629, 0.3260493279, 0.4839579761, 0.6527095437, 0.7548767328, 0.6992880106, 0.6099489331, 0.5273294449, 0.4137084782, 0.3210096955, 0.3274237812, 0.397673279, 0.4560109079, 0.5010622144, 0.5619960427, 0.6375905871, 0.633467257, 0.5874996781, 0.5035057068, 0.428521961, 0.3602577746, 0.3280346394, 0.3342960179, 0.3622430861, 0.409432441, 0.4302018583, 0.4332561791, 0.3996585906, 0.366061002, 0.3568980098, 0.3492622077, 0.3979786932, 0.4169155359, 0.4628831446, 0.543211937, 0.5977316499, 0.5896376967, 0.5910121202, 0.5928447247, 0.6455318332, 0.7238753438, 0.8113817573, 0.8866708875, 1.019992232, 1.117730737, 1.101390004, 1.03297317, 0.9590584636, 0.7652614117, 0.4543310404, 0.1982257664, 0.1744020283, 0.4576907754, 0.8724682927, 1.374752283, 1.682780981, 1.358411551, 0.9036223888, 0.5416847467, 0.04703662544, -0.6620252132, -1.053284407, -1.351081252, -1.521207213, -1.714393258, -1.762193561, -1.645976424, -1.447597861, -1.162171125, -0.8828529716, -0.6501133442, -0.5007568002, -0.4531092942, -0.460439682, -0.5227479339, -0.6056728959, -0.6740897894, -0.8014551997, -0.916908741, -0.8807149529, -0.6742424965, -0.2493857294, 0.1954768747, 0.5045747161, 0.5138903856, 0.389732033, 0.2159408629, 0.05253441259, -0.1096503139, -0.224187538, -0.3316998184, -0.3530801237, -0.3862195611, -0.3662137091, -0.2509129047, 0.09422596544, 0.456469059, 0.6979135275, 0.7790058851, 0.7166976333, 0.5389358401, 0.2852740586, 0.05467243865, -0.3092505336, -0.7599163651, -1.135293007, -1.241125464, -1.152549982, -0.9818131924, -0.7489207983, -0.5199990273, -0.3246748745, 0.0140499007, 0.4549418986, 0.7197519541, 0.7741189599, 0.6574437022, 0.4885394871, 0.4476115108, 0.491746515, 0.5138903856, 0.6142250299, 0.6982190013, 0.6192646623, 0.6047565937, 0.5888741016, 0.5001459122, 0.3892738819, 0.3385720551, 0.3462078869, 0.3575088978, 0.3495676219, 0.3468187451, 0.3614795208, 0.3820962012, 0.3733913898, 0.3129157126, 0.2426662147, 0.1627955884, 0.06704246253, -0.008857546374, -0.06734789163, -0.1111774743, -0.1539380401, -0.1647808999, -0.1976149082, -0.2341141105, -0.2495384514, -0.2136501223, -0.09224065393, 0.06490442902, 0.2035708427, 0.3281873465, 0.3758348525, 0.3468187451, 0.3219259977, 0.3355177343, 0.3672827184, 0.4793764949, 0.7185302377, 0.9758572578, 1.325119376, 1.329089999, 1.05053556, 0.7434229851, 0.2043344229, -0.3950771093, -0.6165157557, -0.6067419052, -0.4706716835, -0.1724167168, 0.3561344445, 1.157131433, 1.472185254, 1.193325281, 0.7382306457, 0.3895792961, -0.0201585535, -0.5232060552, -1.032667756, -1.556026459, -1.867873192, -1.915520668, -1.896736622, -1.827861547, -1.725388885, -1.599703312, -1.348790407, -1.068861485, -0.8752171993, -0.7916813493, -0.7177666426, -0.6692028642, -0.648586154, -0.6360634565, -0.6258314252, -0.6472117305, -0.7141014934, -0.7880161405, -0.7035640478, -0.38576141, 0.009468411095, 0.09208793938, 0.05115996301, -0.01221730467, -0.04291328415, 0.113926366, 0.3292563558, 0.4097378552, 0.3744603992, 0.2628247738, 0.1088867337, -0.06276640296, -0.2915354371, -0.3911064863, -0.3627012372, -0.3228422701, -0.3243694305, -0.4109596014, -0.5056437254, -0.4795292318, -0.4466952085, -0.4821254015, -0.7596109509, -1.15575707, -1.28159523, -1.194241524, -1.057560444, -0.8927795291, -0.8168795705, -0.7107416987, -0.412792176, 0.01191187184, 0.2648100853, 0.4276056588]","[0.5334380865, 0.6152940392, 0.7110471725, 0.7874053121, 0.8761335015, 0.935998261, 0.9492846131, 0.9253081083, 0.8271115422, 0.7319692969, 0.6055201888, 0.4386012554, 0.322689563, 0.1915062517, 0.05925392732, -0.005650503561, -0.01634064503, -0.02061670274, -0.03329215571, -0.1033889428, -0.1476766765, -0.1685988009, -0.1383609772, -0.07024950534, -0.002290744567, 0.04428773001, 0.1204931661, 0.1988366395, 0.2504547536, 0.2800817192, 0.3294090927, 0.3915646076, 0.4439463317, 0.483805269, 0.4918992519, 0.4720461071, 0.4277583957, 0.3544545472, 0.2861903608, 0.2179261744, 0.1791362315, 0.1828014255, 0.204639852, 0.2264782935, 0.2461786866, 0.2573269904, 0.2211332172, 0.1324050426, -0.01618792862, -0.2156354338, -0.4250094891, -0.5627595782, -0.6711881757, -0.7502952218, -0.8327620625, -0.9344711304, -1.015410781, -1.131780624, -1.234405994, -1.312596679, -1.369865298, -1.363909364, -1.280373573, -1.070694089, -0.8863654733, -0.8043568134, -0.7124215961, -0.6273586154, -0.8819366693, -1.230893493, -1.536784291, -1.573588848, -1.426828504, -1.362993121, -1.137125611, -1.149648428, -1.114065528, -1.035263896, -0.9618073106, -0.8738427162, -0.7325801253, -0.5429064631, -0.3953825235, -0.208457768, -0.01420261711, 0.1724167168, 0.3391829133, 0.4529565871, 0.574824214, 0.6708827615, 0.7519751191, 0.8101600409, 0.8558222055, 0.8539896011, 0.8129089475, 0.7092145681, 0.476169467, 0.1870774776, -0.05894849449, -0.2176207453, -0.2890919745, -0.3011565804, -0.236099422, -0.1123992056, 0.02122756653, 0.2159408629, 0.3830125034, 0.51572299, 0.6548475623, 0.7713701129, 0.8634580374, 0.8509352803, 0.7582364678, 0.6843217611, 0.6327036619, 0.6550002694, 0.7145596147, 0.7644978762, 0.8665123582, 0.9595165849, 0.9699012637, 0.9181304574, 0.8637634516, 0.7619016767, 0.6603453159, 0.629496634, 0.6278167367, 0.5853615999, 0.5508477092, 0.5056437254, 0.4312708676, 0.3659082949, 0.2306016237, 0.1131627858, 0.06459899992, 0.03787364438, -0.02504547499, -0.0975857228, -0.1026253626, -0.1221730486, -0.1171334088, -0.07712173462, -0.009162978269, 0.07254024595, 0.1411098689, 0.2193006277, 0.295047909, 0.3596469164, 0.4086688459, 0.4563163519, 0.4879286289, 0.507170856, 0.4850270152, 0.4613559842, 0.4169155359, 0.3726277947, 0.3222314119, 0.2915354371, 0.2582432926, 0.2472477108, 0.2422080636, 0.2382374406, 0.2270891517, 0.2247984111, 0.1632537395, 0.07131851465, -0.02183843218, -0.1820378453, -0.3353650272, -0.4437935948, -0.5155702829, -0.5885686874, -0.6479753256, -0.727540493, -0.829554975, -0.9130908251, -1.096045017, -1.218676209, -1.23822391, -1.222952247, -1.088256478, -0.9040805697, -0.7851145267, -0.6867652535, -0.6621779203, -0.7111998796, -0.9443976879, -1.267545342, -1.45019412, -1.51983273, -1.449125051, -1.446376204, -1.388954878, -1.331991673, -1.301906586, -1.228908181, -1.173166752, -1.101542711, -0.8842274547, -0.6737843752, -0.4889976382, -0.3321579695, -0.1331686229, 0.05879577994, 0.2441933751, 0.3594942093, 0.4709770977, 0.5737552047, 0.6568328738, 0.7142542005, 0.7397578359, 0.7371616364, 0.7208209634, 0.6753115058, 0.6235406995, 0.5170974135, 0.2643519342, -0.1391245574, -0.5400048494, -0.6869179606, -0.6592763066, -0.5047274232, -0.2483167201, -0.03054326214, 0.2684752643, 0.5937610269, 0.866206944, 1.047023058, 1.160338521, 1.108567715, 0.959669292, 0.7887797356, 0.7191411257, 0.7637342811, 0.8584184051, 0.995252192, 1.123686671, 1.247081399, 1.307098866, 1.262658477, 1.046259403, 0.822224617, 0.6105598211, 0.4514294267, 0.3758348525, 0.31871894, 0.2309070677, 0.102319926, 0.02779436857, -0.0423024185]"
2,0,walking,0_walking,250,15.77925359,18.26925359,"[-1.336989641, -1.011565804, -0.6532405615, -0.2009970993, 0.1848455518, 0.656829834, 1.435095429, 1.607378602, 1.329213023, 1.228116274, 1.094118118, 1.103689432, 1.002592683, 0.6825526357, 0.171086818, -0.1585244983, -0.3780659735, -0.3726821244, -0.3200400174, -0.1525424421, -0.02273181453, 0.1208375469, 0.2644068897, 0.4462614357, 0.6179464459, 0.7806583643, 0.9290133715, 1.005583763, 1.024726272, 0.9152546525, 0.8530412912, 0.733400166, 0.5946164131, 0.432502687, 0.3756731451, 0.4761717021, 0.7579265833, 1.063609719, 1.623530149, 1.728216171, 1.737787485, 1.818545222, 1.622333765, 1.105484009, 0.7668996453, 0.6191428304, 0.6957131624, 1.030110121, 1.426122308, 1.615155339, 1.57866478, 0.3912265003, -1.710868239, -3.017947674, -3.909872293, -4.127619267, -3.704089403, -2.894717216, -0.4432703853, 1.738385677, 4.027718544, 5.078765869, 5.019543648, 4.081557274, 2.545963287, 1.567298889, 0.9888339639, 0.5389832854, 0.3996013701, 0.2751746178, 0.06041877344, 0.1244267747, -1.098903775, -1.739582062, -1.893320918, -2.108076811, -2.409572363, -2.600998163, -2.405385017, -1.946561217, -1.272981644, -0.837487936, -0.5030909777, -0.1256231815, 0.1704886109, 0.7244270444, 1.163509965, 1.53080833, 1.898704767, 3.017349243, 4.802394867, 6.686742783, 7.409375191, 6.089135647, 4.391427994, 3.589233875, 2.297708035, 1.220937729, 0.5898307562, 0.2237289101, -0.8542376757, -2.129014015, -3.70050025, -3.905086517, -3.518047571, -2.840878725, -2.995215654, -3.293720484, -2.726023197, -1.884347796, -0.9619147182, 0.2237289101, 1.265205026, 2.02073884, 2.437688112, 2.373081923, 1.514058471, 0.5682953596, -0.2584248483, -0.6831508875, -1.161117196, -1.289731383, -1.262213945, -1.11445713, -0.9469595551, -0.3463610709, 0.3984049559, 0.6897311211, 0.7417750359, 0.798604548, 0.679561615, 0.4492524564, -0.0765703246, -0.6221339107, -0.903888762, -1.01874423, -1.036690354, -0.950548768, -0.7501499057, -0.6628118753, -0.7052844763, -0.7914260626, -0.9445667267, -0.9631111026, -0.7716853023, -0.5132604837, -0.1310070455, 0.1896311939, 0.5814558864, 0.8787640929, 1.208375454, 1.56191504, 1.7670995, 1.843669891, 1.81495595, 1.676172256, 1.432104349, 1.116251707, 0.8003991842, 0.4612165689, 0.1507478207, 0.0933200866, 0.07417750359, -0.04067798331, -0.04127619043, 0.2506481707, 0.566500783, 0.7244270444, 1.049252748, 1.35912323, 1.290927768, 0.5198407173, -0.6346961856, -1.992024899, -3.00837636, -3.397808075, -3.949951887, -4.199403763, -1.87956214, -0.6346961856, 1.455434322, 4.086941242, 6.160920143, 6.775875568, 5.647659779, 4.183252335, 2.843869686, 1.21854496, 1.587637782, 1.42372942, 1.347757339, 0.5222335458, -0.1938186288, -0.9290133715, -1.345364571, -1.761117458, -2.034497499, -2.240878344, -2.36111784, -2.38624239, -2.161915302, -1.847259045, -1.45483613, -1.15393877, -1.177866936, -0.9337990284, -0.1932204217, 0.4666004181, 1.116850019, 1.66600275, 2.219941139, 3.143570662, 4.876572609, 5.867201328, 5.569892883, 4.804189682, 4.651647091, 4.149752617, 3.337389469, 2.577069998, 1.739582062, 0.7597211599, 0.1262213886, -0.5599204898, -1.543370605, -2.499901533, -2.964108944, -2.865405083, -2.54656148, -2.557329178, -1.922633052, -0.9672985673, -0.01615155302, 0.5282155871, 0.8584251404, 0.8524430394, 0.4695914388, 0.1579262912, -0.3050848842, -1.240080357, -1.898106575, -1.919641972, -1.310668588, 0.004785645287, 1.202393413, 1.884945989, 1.647458434, 1.121037364, -0.05443671346, -0.7076773047]","[-10.57029438, -10.11685371, -9.51745224, -9.008976936, -8.803792953, -9.079565048, -8.989236832, -8.930612564, -8.967103004, -8.754739761, -8.840283394, -9.169296265, -9.17109108, -9.259027481, -9.537791252, -9.714859962, -9.787840843, -9.69452095, -9.653244972, -9.663414001, -9.649655342, -9.836894035, -9.933204651, -9.904491425, -9.794421196, -9.731609344, -9.674181938, -9.731609344, -9.808777809, -9.919445992, -10.00139999, -10.06839943, -10.09232807, -10.1844511, -10.33340454, -10.52004433, -10.69711399, -10.523036, -10.79521942, -11.10987568, -11.66381359, -12.16331577, -12.19143105, -12.21535969, -12.18365479, -12.24885941, -12.06341553, -11.30608654, -10.64327526, -9.554540634, -9.046664238, -8.797212601, -9.45583725, -10.18505001, -11.1936245, -12.09452248, -12.50249863, -12.19083309, -11.13679504, -10.89033413, -10.53260708, -9.332606316, -9.040083885, -9.27278614, -9.470791817, -9.359525681, -9.355937004, -8.956933022, -9.189635277, -9.025128365, -8.363512993, -8.036892891, -7.801798344, -7.443472862, -7.23230648, -7.226922512, -7.051050186, -6.71964407, -6.59342289, -6.601797581, -6.467201233, -6.232106686, -6.20758009, -6.320641041, -6.716054916, -7.5924263, -9.093324661, -11.10509014, -12.83330631, -14.71047497, -15.39721584, -14.35514164, -13.42493153, -12.03829098, -10.30528927, -8.800203323, -8.184051514, -8.61655426, -9.666405678, -11.67637634, -13.08275795, -14.29053497, -15.01974773, -14.55554008, -12.57667542, -10.26700401, -8.961120605, -8.452646255, -8.266604424, -8.173882484, -8.153543472, -8.199604988, -8.062017441, -7.893323898, -8.007580757, -8.803792953, -9.889535904, -10.58345413, -10.88734341, -10.55952644, -10.35613632, -9.965508461, -9.331410408, -8.851051331, -8.927620888, -8.624929428, -8.328817368, -8.407182693, -8.534002304, -8.23729229, -8.620741844, -9.043074608, -9.46002388, -9.970293999, -9.975079536, -9.641879082, -9.501898766, -9.597611427, -9.31525898, -9.170493126, -9.033503532, -8.985647202, -9.081359863, -9.283554077, -9.532406807, -9.652048111, -9.829116821, -10.27298546, -10.45424175, -10.69472122, -10.75214863, -10.61216831, -10.37228775, -10.28554821, -10.33340454, -10.50508976, -10.69591713, -10.64267731, -10.63250732, -10.84786129, -11.55135155, -12.20160103, -12.28714466, -12.28654575, -12.15194988, -11.99462128, -11.85583782, -11.8271246, -11.39581776, -10.45543861, -9.324830055, -8.842078209, -8.200801849, -8.498707771, -8.962317467, -9.932606697, -11.10449123, -12.16570854, -12.05204964, -12.57966709, -12.34995556, -12.20638657, -10.46082211, -9.324232101, -9.601201057, -9.495916367, -9.300901413, -9.101100922, -8.426922798, -8.851649284, -8.778668404, -8.532207489, -8.425726891, -8.225327492, -7.762316704, -7.490133286, -7.134799004, -6.969694138, -6.795018196, -6.828517437, -6.735197544, -6.766902447, -6.808776855, -6.84646368, -7.222734928, -7.749754429, -8.688339233, -9.522835732, -11.18584728, -12.13639641, -12.66999626, -12.79980659, -12.53360462, -11.87378407, -11.38325596, -10.96092224, -10.06361389, -9.25783062, -8.986844063, -8.801400185, -8.972486496, -9.824331284, -12.10289669, -13.90588856, -14.5890398, -14.34138298, -13.78146172, -12.06999588, -10.54397297, -9.755537987, -9.415757179, -9.502496719, -9.537791252, -9.321240425, -8.876773834, -8.428717613, -7.968697548, -7.82333374, -8.021938324, -8.703892708, -9.55753231, -10.50209904, -10.51226807, -9.939785004, -9.151350021, -8.455636978, -8.181060791, -8.140382767, -8.213961601, -8.3641119]","[2.367697954, 2.630310297, 2.535195589, 1.649253011, 0.9625129104, -0.004187439568, -0.5563312769, -0.7328019142, -0.9876375198, -1.331605792, -1.418943882, -1.62652123, -2.100898266, -1.829911113, -1.733001828, -1.783251047, -1.640878081, -1.276570916, -0.9984052777, -0.8350951076, -0.7339983582, -0.5958128572, -0.5288137794, -0.4701896608, -0.4785645306, -0.5730810165, -0.4863412082, -0.5389832854, -0.4336991012, -0.3056831062, -0.2632105052, -0.2500499785, -0.2697907388, -0.08913264424, -0.008973085321, 0.004785645287, 0.004785645287, -0.1794617027, -0.2273181528, -0.4348955154, -0.6538388133, -1.030110121, -1.194018483, -1.281954765, -1.019940615, -0.5946164131, -0.3487538993, -0.4815555513, -0.8781659007, -1.914258122, -3.510869026, -4.500301361, -3.578466177, -2.008176327, -0.8015955687, 0.1543370634, 1.91066885, 2.66739893, 2.090130568, 2.727219582, 2.412563324, 1.983649969, 1.171286702, -2.267199516, -2.930011272, -1.70249331, -1.613958836, -2.015354872, -2.237887383, -2.529213428, -2.07098794, -0.6849454641, -0.1896311939, -0.1806581169, -0.299701035, -0.3768695593, -0.3098705411, -0.4426721931, -0.6993024349, -0.822532773, -0.8763712645, -0.8925228715, -0.9529415965, -1.153340459, -1.399203062, -2.048854351, -3.009572744, -4.223331928, -4.883750916, -5.274379253, -4.707280159, -4.219144344, -3.63589406, -3.637090445, -3.158525944, -2.179861546, -2.070389748, -2.729014158, -3.26440835, -2.579462767, -1.290329576, -0.4983053207, 0.3529413342, 1.130608678, 1.508674622, 1.176670551, 0.5425725579, -0.446859628, -1.066002488, -1.200598717, -1.307079315, -1.432104349, -1.858624935, -1.993221283, -1.274178028, -0.1974078715, 0.2907279432, 0.9864411354, 1.24965167, 1.546959877, 1.871785522, 2.175673962, 1.762912035, 1.47457695, 1.5224334, 0.6939185858, 0.08075776696, -0.3786641955, -0.7381857634, -0.6783652306, -0.6669993401, -1.269392371, -1.216152072, -1.537986755, -1.591825247, -1.345962763, -0.760917604, -0.7130611539, -0.7154539824, -0.1776670814, 0.1579262912, 0.1244267747, 0.132801652, 0.2656033039, 0.3272185028, 0.3894318938, 0.3996013701, 0.2542374134, 0.2452643216, 0.4504488707, 0.4372883439, 0.3098705411, 0.2548356056, 0.1740778536, 0.1405783296, 0.07178468257, -0.06939185411, -0.237487644, -0.3248256743, -0.394815743, -0.4193421602, -0.5581258535, -0.6544370055, -0.7316055298, -0.8500502706, -0.7429714203, -0.6209374666, -0.6299105883, -0.7070791125, -0.9732806087, -1.224527001, -2.005185366, -2.838485956, -2.81695056, -1.612164259, -0.3032902777, 1.027717352, 0.06281159073, 0.5126622319, 1.601396561, 1.898106575, 3.029313564, 2.71824646, 1.707877159, -0.836291492, -1.765304923, -1.802991867, -1.75034976, -0.8584251404, -1.829312921, -1.287936807, -0.2410768867, 0.1878365725, 0.9762716293, 1.116850019, 1.159920812, 0.9170492887, 0.5389832854, 0.1034895778, -0.6532405615, -0.9774680734, -1.253839016, -1.353141189, -1.376471281, -1.704287887, -1.596610904, -2.117049932, -2.52682066, -2.82233429, -3.826721668, -4.125226021, -3.949951887, -2.677568436, -1.673181176, -2.082952023, -2.389831543, -2.025524378, -1.582253933, -1.406381488, -1.35074842, -1.594218135, -1.746760488, -0.9738788009, 0.195015043, 0.6747759581, 0.7016952634, 0.6221339107, 0.2404786795, -0.3565305769, -0.9451649189, -1.596610904, -2.120639086, -2.542972326, -2.659622431, -2.502294302, -2.944368362, -3.134597778, -3.460619688, -3.070589542, -2.130808592, -1.137787223, -0.08554340899, 0.8213363886, 1.284945726, 3.138186932, 5.252245903, 6.407381058, 5.950351715, 3.800400496, 1.790429592]","[0.3492622077, 0.5067127347, 0.7276932001, 0.897208333, 0.9863946438, 1.088867307, 1.153924465, 1.222035885, 1.234711409, 1.207222462, 1.193325281, 1.151786447, 1.056185961, 0.8999572396, 0.8006916046, 0.6902777553, 0.5697845817, 0.4457789063, 0.3370448947, 0.2793181241, 0.2313652188, 0.2118175179, 0.224187538, 0.2388483137, 0.2521346211, 0.2486221492, 0.2270891517, 0.1873829067, 0.1539380401, 0.1241583601, 0.1114829108, 0.1145372316, 0.1247692257, 0.1227839142, 0.1302670091, 0.1514945775, 0.1800525337, 0.224492982, 0.2437352389, 0.220216915, 0.1951714456, 0.1580613852, 0.03375030309, -0.1620320082, -0.4024074674, -0.5778785348, -0.7254024744, -0.8694139719, -1.085507512, -1.355815411, -1.626428723, -2.056325197, -2.424829483, -2.574033499, -2.511725187, -2.303267479, -1.978592515, -1.53892231, -1.168279767, -0.8271115422, -0.4891503453, -0.2518292069, -0.1563815027, -0.1488984078, -0.2220495194, -0.2133446932, -0.04016438872, 0.0736092627, 0.1884519309, 0.25167647, 0.1898263693, 0.1699732542, 0.224492982, 0.2539672256, 0.279165417, 0.3211624026, 0.354149133, 0.4092797041, 0.4321871698, 0.4068362415, 0.3802636266, 0.3573561609, 0.3607159257, 0.3862195611, 0.4352414906, 0.4867068827, 0.5508477092, 0.5920811296, 0.5302310586, 0.3856086731, 0.1388191283, -0.06704246253, -0.1061378345, -0.02260201424, 0.04550946131, 0.1638645977, 0.2359467, 0.2141082734, 0.1678352207, 0.1255328059, 0.1711949855, 0.2490803003, 0.3346014321, 0.4439463317, 0.5064072609, 0.5563455224, 0.6417139173, 0.6921103001, 0.7420485616, 0.7764097452, 0.7687739134, 0.6948592067, 0.5467243791, 0.3202461004, 0.05558873713, -0.1175915599, -0.2058615834, -0.2626720667, -0.1774563491, -0.01496619824, 0.1287398487, 0.3170390725, 0.5184718966, 0.6163630486, 0.6772968173, 0.7469354868, 0.8013024926, 0.8849910498, 0.9468411207, 0.9607383013, 0.9272934198, 0.8668177724, 0.7997753024, 0.755793035, 0.6501133442, 0.4889976382, 0.322995007, 0.2138028294, 0.1446223408, 0.06704246253, 0.01145372353, -0.01038470957, 0.003817907767, 0.03222314268, 0.06826419383, 0.1168279797, 0.145385921, 0.1766927689, 0.204945296, 0.248164013, 0.3152064681, 0.3845396638, 0.4616613984, 0.5152648091, 0.5326744914, 0.5213735104, 0.4923573732, 0.4460843503, 0.370337069, 0.2528982162, 0.184939459, 0.1438587606, 0.05375614017, -0.09071348608, -0.2364048511, -0.4740314186, -0.7289149761, -0.9555459619, -1.114065528, -1.339169383, -1.643991113, -1.945453048, -2.256230831, -2.494162798, -2.649933338, -2.594039202, -2.316553831, -2.031890631, -1.771967411, -1.387427688, -1.005331516, -0.6789767146, -0.3631593883, -0.1322523206, -0.04657847434, -0.0545197241, -0.06627888232, -0.03527746722, -0.02168571576, 0.1389718503, 0.1843285859, 0.2892446816, 0.3610213697, 0.4010330439, 0.4260784984, 0.4211915731, 0.4508185387, 0.5384777188, 0.649197042, 0.7319692969, 0.7609853745, 0.7571674585, 0.7105889916, 0.6554583907, 0.6093381047, 0.5415320396, 0.5074763298, 0.4963280261, 0.5039638281, 0.4821254015, 0.3486513495, 0.1734857261, 0.03039054573, -0.08353582025, -0.09865473956, -0.05146539584, 0.0354301855, 0.1204931661, 0.1802052408, 0.1664607823, 0.1653917581, 0.1934915632, 0.2475531399, 0.3379611969, 0.4218024611, 0.4807509482, 0.5757405162, 0.751822412, 0.9126327038, 1.022588372, 1.049008369, 1.037860036, 0.935998261, 0.7903069258, 0.6823364496, 0.5099197626, 0.188910082, -0.243887946, -0.7504479289, -1.088103771, -1.351081252, -1.400103092, -1.421788812, -1.373988628, -1.109942198, -0.5893322229, 0.01863138936, 0.5876523852, 0.9217956662, 1.188132882]","[-0.5199990273, -0.3246748745, 0.0140499007, 0.4549418986, 0.7197519541, 0.7741189599, 0.6574437022, 0.4885394871, 0.4476115108, 0.491746515, 0.5138903856, 0.6142250299, 0.6982190013, 0.6192646623, 0.6047565937, 0.5888741016, 0.5001459122, 0.3892738819, 0.3385720551, 0.3462078869, 0.3575088978, 0.3495676219, 0.3468187451, 0.3614795208, 0.3820962012, 0.3733913898, 0.3129157126, 0.2426662147, 0.1627955884, 0.06704246253, -0.008857546374, -0.06734789163, -0.1111774743, -0.1539380401, -0.1647808999, -0.1976149082, -0.2341141105, -0.2495384514, -0.2136501223, -0.09224065393, 0.06490442902, 0.2035708427, 0.3281873465, 0.3758348525, 0.3468187451, 0.3219259977, 0.3355177343, 0.3672827184, 0.4793764949, 0.7185302377, 0.9758572578, 1.325119376, 1.329089999, 1.05053556, 0.7434229851, 0.2043344229, -0.3950771093, -0.6165157557, -0.6067419052, -0.4706716835, -0.1724167168, 0.3561344445, 1.157131433, 1.472185254, 1.193325281, 0.7382306457, 0.3895792961, -0.0201585535, -0.5232060552, -1.032667756, -1.556026459, -1.867873192, -1.915520668, -1.896736622, -1.827861547, -1.725388885, -1.599703312, -1.348790407, -1.068861485, -0.8752171993, -0.7916813493, -0.7177666426, -0.6692028642, -0.648586154, -0.6360634565, -0.6258314252, -0.6472117305, -0.7141014934, -0.7880161405, -0.7035640478, -0.38576141, 0.009468411095, 0.09208793938, 0.05115996301, -0.01221730467, -0.04291328415, 0.113926366, 0.3292563558, 0.4097378552, 0.3744603992, 0.2628247738, 0.1088867337, -0.06276640296, -0.2915354371, -0.3911064863, -0.3627012372, -0.3228422701, -0.3243694305, -0.4109596014, -0.5056437254, -0.4795292318, -0.4466952085, -0.4821254015, -0.7596109509, -1.15575707, -1.28159523, -1.194241524, -1.057560444, -0.8927795291, -0.8168795705, -0.7107416987, -0.412792176, 0.01191187184, 0.2648100853, 0.4276056588, 0.681420207, 0.7544185519, 0.7383833528, 0.6974554062, 0.6508769393, 0.6826419234, 0.705091238, 0.5497786999, 0.4218024611, 0.208305046, 0.005039638374, -0.07696902007, 0.03787364438, 0.08307767659, 0.1050688252, 0.2539672256, 0.4509712756, 0.5083925724, 0.4970915914, 0.4602869749, 0.4075998366, 0.3819434941, 0.3281873465, 0.2107485086, 0.07895433158, 0.005192354787, -0.05375614017, -0.1540907621, -0.2339613885, -0.2600758672, -0.243887946, -0.1774563491, -0.1015563458, -0.03100141138, 0.04260785133, 0.08857546002, 0.1386664063, 0.1724167168, 0.2388483137, 0.3075706363, 0.3691153228, 0.4343251884, 0.4802927971, 0.4960225821, 0.5332853794, 0.6594290137, 0.9411906004, 1.292590857, 1.367421865, 1.237307549, 1.067639709, 0.9615018964, 0.8732318878, 0.3524692357, -0.2380847335, -0.3604104817, -0.3371976018, -0.2652682364, 0.04535674304, 0.3982841372, 0.4560109079, 0.2973386645, 0.037415497, -0.3023782969, -0.6279694438, -1.0726794, -1.685682654, -2.184148788, -2.589915991, -2.73133111, -2.730873108, -2.614045143, -2.431549072, -2.203238249, -2.019215107, -1.855655909, -1.719127536, -1.604895711, -1.503033876, -1.427897453, -1.408349872, -1.427592039, -1.523650646, -1.560302496, -1.472032547, -1.282969713, -0.9837985039, -0.7014260292, -0.295353353, -0.05390885845, -0.1027780771, -0.3109304011, -0.4667010605, -0.5338962078, -0.499535054, -0.4934264123, -0.5852088928, -0.7935139537, -0.9538660645, -0.971581161, -0.9657779336, -0.999222815, -1.051146388, -1.050382733, -1.007316828, -0.9373727441, -0.814894259, -0.7212791443, -0.7673994899, -0.8894197941, -1.07939887, -1.473712444, -1.99172616, -2.615877628, -2.957504034, -3.048522949, -2.822502851, -2.408794403, -2.066251755, -1.952783465, -1.743562102, -1.216538191, -0.4943426847, 0.04444044828, 0.5123631954]","[0.629496634, 0.6278167367, 0.5853615999, 0.5508477092, 0.5056437254, 0.4312708676, 0.3659082949, 0.2306016237, 0.1131627858, 0.06459899992, 0.03787364438, -0.02504547499, -0.0975857228, -0.1026253626, -0.1221730486, -0.1171334088, -0.07712173462, -0.009162978269, 0.07254024595, 0.1411098689, 0.2193006277, 0.295047909, 0.3596469164, 0.4086688459, 0.4563163519, 0.4879286289, 0.507170856, 0.4850270152, 0.4613559842, 0.4169155359, 0.3726277947, 0.3222314119, 0.2915354371, 0.2582432926, 0.2472477108, 0.2422080636, 0.2382374406, 0.2270891517, 0.2247984111, 0.1632537395, 0.07131851465, -0.02183843218, -0.1820378453, -0.3353650272, -0.4437935948, -0.5155702829, -0.5885686874, -0.6479753256, -0.727540493, -0.829554975, -0.9130908251, -1.096045017, -1.218676209, -1.23822391, -1.222952247, -1.088256478, -0.9040805697, -0.7851145267, -0.6867652535, -0.6621779203, -0.7111998796, -0.9443976879, -1.267545342, -1.45019412, -1.51983273, -1.449125051, -1.446376204, -1.388954878, -1.331991673, -1.301906586, -1.228908181, -1.173166752, -1.101542711, -0.8842274547, -0.6737843752, -0.4889976382, -0.3321579695, -0.1331686229, 0.05879577994, 0.2441933751, 0.3594942093, 0.4709770977, 0.5737552047, 0.6568328738, 0.7142542005, 0.7397578359, 0.7371616364, 0.7208209634, 0.6753115058, 0.6235406995, 0.5170974135, 0.2643519342, -0.1391245574, -0.5400048494, -0.6869179606, -0.6592763066, -0.5047274232, -0.2483167201, -0.03054326214, 0.2684752643, 0.5937610269, 0.866206944, 1.047023058, 1.160338521, 1.108567715, 0.959669292, 0.7887797356, 0.7191411257, 0.7637342811, 0.8584184051, 0.995252192, 1.123686671, 1.247081399, 1.307098866, 1.262658477, 1.046259403, 0.822224617, 0.6105598211, 0.4514294267, 0.3758348525, 0.31871894, 0.2309070677, 0.102319926, 0.02779436857, -0.0423024185, -0.1130100712, -0.1420261711, -0.1802052408, -0.1780672222, -0.1673770845, -0.1915062517, -0.1779145002, -0.1638645977, -0.1522581577, -0.1056796908, -0.03084869497, 0.04596760869, 0.129808858, 0.2351831198, 0.3013092875, 0.3242167234, 0.3497203588, 0.4024074674, 0.4975497425, 0.5986479521, 0.6788240075, 0.7214318514, 0.7502952218, 0.7594582438, 0.7330383062, 0.6837109327, 0.6197227836, 0.5299255848, 0.4317290187, 0.3291036487, 0.2461786866, 0.1501201391, 0.07864890248, 0.02290744707, -0.002138028387, -0.02977968007, -0.07712173462, -0.1475239545, -0.2495384514, -0.3220787048, -0.4080579877, -0.519540906, -0.6362161636, -0.707840085, -0.8013024926, -0.9269880056, -1.049466491, -1.148426652, -1.20370996, -1.253037333, -1.26250577, -1.244027019, -1.142470717, -0.8894197941, -0.8480336666, -0.8029823899, -0.8034405112, -0.9610437751, -1.241736293, -1.48424983, -1.524108768, -1.459051609, -1.392161846, -1.330464482, -1.319163442, -1.288620234, -1.294576168, -1.252121091, -1.170112371, -1.036638379, -0.9109528065, -0.7089090943, -0.5114469528, -0.3237585723, -0.1824959964, -0.0155770639, 0.1194241568, 0.2299907655, 0.3161227703, 0.3813326359, 0.4731151462, 0.5621487498, 0.5994115472, 0.5919284225, 0.5546656251, 0.4642575979, 0.3416263759, 0.1945605874, -0.06322455406, -0.3207042515, -0.4821254015, -0.5688682795, -0.6027712822, -0.5178610086, -0.3417791128, -0.1061378345, 0.1264491081, 0.4415028691, 0.7797694802, 1.057865858, 1.216538191, 1.258993268, 1.259604096, 1.201877356, 1.178817153, 1.209665895, 1.217607141, 1.153619051, 1.015716195, 0.8943067193, 0.7898487449, 0.7113525867, 0.6287330389, 0.5334380865, 0.444404453, 0.4016439021, 0.4554000497, 0.5283984542, 0.538783133, 0.5096143484, 0.3058907688, 0.001374446787, -0.200821951, -0.3109304011, -0.3711006343]"
3,0,walking,0_walking,375,17.02925359,19.51925359,"[-0.3463610709, 0.3984049559, 0.6897311211, 0.7417750359, 0.798604548, 0.679561615, 0.4492524564, -0.0765703246, -0.6221339107, -0.903888762, -1.01874423, -1.036690354, -0.950548768, -0.7501499057, -0.6628118753, -0.7052844763, -0.7914260626, -0.9445667267, -0.9631111026, -0.7716853023, -0.5132604837, -0.1310070455, 0.1896311939, 0.5814558864, 0.8787640929, 1.208375454, 1.56191504, 1.7670995, 1.843669891, 1.81495595, 1.676172256, 1.432104349, 1.116251707, 0.8003991842, 0.4612165689, 0.1507478207, 0.0933200866, 0.07417750359, -0.04067798331, -0.04127619043, 0.2506481707, 0.566500783, 0.7244270444, 1.049252748, 1.35912323, 1.290927768, 0.5198407173, -0.6346961856, -1.992024899, -3.00837636, -3.397808075, -3.949951887, -4.199403763, -1.87956214, -0.6346961856, 1.455434322, 4.086941242, 6.160920143, 6.775875568, 5.647659779, 4.183252335, 2.843869686, 1.21854496, 1.587637782, 1.42372942, 1.347757339, 0.5222335458, -0.1938186288, -0.9290133715, -1.345364571, -1.761117458, -2.034497499, -2.240878344, -2.36111784, -2.38624239, -2.161915302, -1.847259045, -1.45483613, -1.15393877, -1.177866936, -0.9337990284, -0.1932204217, 0.4666004181, 1.116850019, 1.66600275, 2.219941139, 3.143570662, 4.876572609, 5.867201328, 5.569892883, 4.804189682, 4.651647091, 4.149752617, 3.337389469, 2.577069998, 1.739582062, 0.7597211599, 0.1262213886, -0.5599204898, -1.543370605, -2.499901533, -2.964108944, -2.865405083, -2.54656148, -2.557329178, -1.922633052, -0.9672985673, -0.01615155302, 0.5282155871, 0.8584251404, 0.8524430394, 0.4695914388, 0.1579262912, -0.3050848842, -1.240080357, -1.898106575, -1.919641972, -1.310668588, 0.004785645287, 1.202393413, 1.884945989, 1.647458434, 1.121037364, -0.05443671346, -0.7076773047, -0.8117650747, -0.956530869, -0.9290133715, -0.8231309652, -0.8703892231, -0.9224331379, -1.031904817, -1.074377418, -1.046261668, -1.003789067, -0.970289588, -1.055832982, -1.146162033, -1.068993568, -0.9774680734, -0.9960124493, -1.149153113, -1.364507079, -1.527219057, -1.569691658, -1.354935765, -0.8913264275, -0.4366901219, -0.06340979785, 0.4773681164, 1.165304661, 1.843669891, 2.187039852, 2.301297188, 2.008774519, 1.615155339, 1.27477622, 1.012163997, 0.8937192559, 0.745962441, 0.3020938635, -0.4797609448, -1.128215909, -0.7357929349, 0.2321037948, 1.225125194, 0.6532405615, -0.8392825127, -2.328814745, -3.919443607, -5.038087845, -6.628716946, -6.737590313, -5.164309502, -3.27577424, -1.362712502, 0.7794619799, 3.404388428, 4.980660439, 4.15633297, 3.540779352, 2.306680918, 0.7573283911, 0.313459754, -0.4695914388, -1.249053478, -1.731207132, -1.956132531, -2.419143677, -2.786442041, -2.891726255, -2.824727058, -2.733799934, -2.596212626, -2.410768747, -1.956730723, -1.554736495, -1.216152072, -0.9631111026, -0.7818548083, -0.195015043, 0.3302095234, 1.085145116, 1.779063582, 3.415754318, 5.147559643, 6.147759438, 6.151947021, 5.318646431, 4.265804768, 3.438486099, 2.362314224, 1.133599758, 0.2590230405, -0.2662015259, -1.19581306, -2.264208317, -3.367299557, -4.069592953, -4.264608383, -4.134199142, -3.708875179, -3.320041418, -3.375076294, -3.248854876, -2.333600283, -1.16769743, -0.3726821244, 0.546759963, 1.73898387, 3.224328518, 4.543372154, 4.521238327, 3.187239647, 2.623131752, 1.37048912, 0.337387979, -0.7489534616, -1.586441398, -2.109273195, -2.215753794, -2.001596212, -1.701895118, -1.444068432, -1.281356573, -0.822532773, -0.009571290575, 0.6119644046, 0.8554341197, 0.6305087805]","[-8.624929428, -8.328817368, -8.407182693, -8.534002304, -8.23729229, -8.620741844, -9.043074608, -9.46002388, -9.970293999, -9.975079536, -9.641879082, -9.501898766, -9.597611427, -9.31525898, -9.170493126, -9.033503532, -8.985647202, -9.081359863, -9.283554077, -9.532406807, -9.652048111, -9.829116821, -10.27298546, -10.45424175, -10.69472122, -10.75214863, -10.61216831, -10.37228775, -10.28554821, -10.33340454, -10.50508976, -10.69591713, -10.64267731, -10.63250732, -10.84786129, -11.55135155, -12.20160103, -12.28714466, -12.28654575, -12.15194988, -11.99462128, -11.85583782, -11.8271246, -11.39581776, -10.45543861, -9.324830055, -8.842078209, -8.200801849, -8.498707771, -8.962317467, -9.932606697, -11.10449123, -12.16570854, -12.05204964, -12.57966709, -12.34995556, -12.20638657, -10.46082211, -9.324232101, -9.601201057, -9.495916367, -9.300901413, -9.101100922, -8.426922798, -8.851649284, -8.778668404, -8.532207489, -8.425726891, -8.225327492, -7.762316704, -7.490133286, -7.134799004, -6.969694138, -6.795018196, -6.828517437, -6.735197544, -6.766902447, -6.808776855, -6.84646368, -7.222734928, -7.749754429, -8.688339233, -9.522835732, -11.18584728, -12.13639641, -12.66999626, -12.79980659, -12.53360462, -11.87378407, -11.38325596, -10.96092224, -10.06361389, -9.25783062, -8.986844063, -8.801400185, -8.972486496, -9.824331284, -12.10289669, -13.90588856, -14.5890398, -14.34138298, -13.78146172, -12.06999588, -10.54397297, -9.755537987, -9.415757179, -9.502496719, -9.537791252, -9.321240425, -8.876773834, -8.428717613, -7.968697548, -7.82333374, -8.021938324, -8.703892708, -9.55753231, -10.50209904, -10.51226807, -9.939785004, -9.151350021, -8.455636978, -8.181060791, -8.140382767, -8.213961601, -8.3641119, -8.041080475, -7.615158081, -7.673782349, -8.248059273, -8.967103004, -9.441479683, -10.00379372, -10.23111153, -9.86022377, -9.443274498, -9.672387123, -10.19462109, -10.1210413, -9.716654778, -9.355338097, -9.114859581, -9.205188751, -9.195018768, -9.185447693, -9.401400566, -9.987043381, -10.43988514, -10.86161995, -11.57109165, -12.07777214, -11.84088326, -11.1445713, -10.69292641, -10.54696369, -10.38126087, -10.34776115, -10.63190937, -11.249856, -12.7190485, -12.71605778, -12.72024536, -12.91705513, -12.66461182, -11.55314636, -11.20140076, -9.503094673, -9.165108681, -9.31166935, -9.500701904, -10.36391354, -11.89292717, -13.42493153, -13.67199039, -12.33739376, -11.50947666, -10.9489584, -10.22273636, -8.648259163, -8.821140289, -9.881160736, -9.926026344, -10.05763149, -9.9643116, -9.422935486, -8.777471542, -8.787042618, -8.193024635, -7.907082558, -7.653443336, -7.254439831, -6.725028038, -6.448058605, -6.102295876, -5.878567219, -5.851049423, -5.91266489, -5.92642355, -6.144768715, -6.605386734, -7.396812916, -8.552546501, -9.327222824, -10.18026352, -11.16132164, -12.24885941, -12.85185051, -13.12702465, -12.80937767, -11.76431274, -10.46740246, -9.731011391, -9.12084198, -8.840881348, -8.722436905, -9.829715729, -12.04307652, -13.54995632, -14.19542027, -14.85883045, -14.59980774, -13.54337597, -12.12742329, -10.40159988, -9.097511292, -8.484351158, -8.440083504, -8.163712502, -7.941778183, -7.884350777, -7.665407181, -7.738388538, -7.93818903, -8.743373871, -10.30708313, -10.49850941, -10.54277611, -10.43809032, -10.0582304, -9.672985077, -9.533603668, -9.499505997, -9.285347939, -9.022735596, -8.720044136, -8.95513916, -9.049057007, -9.09571743, -9.424132347, -9.668199539, -9.771091461]","[0.6939185858, 0.08075776696, -0.3786641955, -0.7381857634, -0.6783652306, -0.6669993401, -1.269392371, -1.216152072, -1.537986755, -1.591825247, -1.345962763, -0.760917604, -0.7130611539, -0.7154539824, -0.1776670814, 0.1579262912, 0.1244267747, 0.132801652, 0.2656033039, 0.3272185028, 0.3894318938, 0.3996013701, 0.2542374134, 0.2452643216, 0.4504488707, 0.4372883439, 0.3098705411, 0.2548356056, 0.1740778536, 0.1405783296, 0.07178468257, -0.06939185411, -0.237487644, -0.3248256743, -0.394815743, -0.4193421602, -0.5581258535, -0.6544370055, -0.7316055298, -0.8500502706, -0.7429714203, -0.6209374666, -0.6299105883, -0.7070791125, -0.9732806087, -1.224527001, -2.005185366, -2.838485956, -2.81695056, -1.612164259, -0.3032902777, 1.027717352, 0.06281159073, 0.5126622319, 1.601396561, 1.898106575, 3.029313564, 2.71824646, 1.707877159, -0.836291492, -1.765304923, -1.802991867, -1.75034976, -0.8584251404, -1.829312921, -1.287936807, -0.2410768867, 0.1878365725, 0.9762716293, 1.116850019, 1.159920812, 0.9170492887, 0.5389832854, 0.1034895778, -0.6532405615, -0.9774680734, -1.253839016, -1.353141189, -1.376471281, -1.704287887, -1.596610904, -2.117049932, -2.52682066, -2.82233429, -3.826721668, -4.125226021, -3.949951887, -2.677568436, -1.673181176, -2.082952023, -2.389831543, -2.025524378, -1.582253933, -1.406381488, -1.35074842, -1.594218135, -1.746760488, -0.9738788009, 0.195015043, 0.6747759581, 0.7016952634, 0.6221339107, 0.2404786795, -0.3565305769, -0.9451649189, -1.596610904, -2.120639086, -2.542972326, -2.659622431, -2.502294302, -2.944368362, -3.134597778, -3.460619688, -3.070589542, -2.130808592, -1.137787223, -0.08554340899, 0.8213363886, 1.284945726, 3.138186932, 5.252245903, 6.407381058, 5.950351715, 3.800400496, 1.790429592, -0.1280160099, -0.9158528447, -1.452443361, -1.484746456, -1.254437327, -1.181456208, -0.8452646136, -0.4492524564, -0.8781659007, -0.9134600163, -1.005583763, -0.932602644, -0.4731806815, -0.1393819153, 0.2697907388, 0.865005374, 0.7776673436, 0.6095715761, 0.6233302951, 0.6981059909, 0.2500499785, 0.05742774159, 0.1764706671, 0.3840480447, 0.3828516304, 0.08075776696, -0.214157626, -0.4061816335, -0.7974081635, -1.324427366, -2.163709879, -2.61714983, -2.574079037, -2.60279274, -2.340180635, -1.709671736, -0.2679961324, 0.6317051649, 1.286740422, 2.53280282, 2.011167526, 0.708275497, -2.784049034, -4.136591911, -3.320041418, -0.7722834945, -0.1944168359, 0.3116651475, 0.5461617708, 0.8267202377, 1.005583763, 1.468594909, 1.790429592, 0.6077769399, -0.6664010882, -2.733201742, -3.2895329, -3.112463951, -2.455035925, -1.725823283, -1.848455548, -1.205384374, -1.036690354, -0.394815743, 0.1088734269, 0.3272185028, 0.4253242314, 0.2410768867, -0.2745763958, -0.7668996453, -0.8033902049, -0.8979067206, -1.171286702, -1.642074585, -2.077568293, -3.165106058, -4.010370731, -4.444069862, -4.323232174, -4.012165546, -3.726821184, -3.241078377, -3.535993576, -3.896711588, -4.05523634, -4.034897327, -3.766901016, -3.611367464, -3.513859987, -3.288336515, -2.280958176, -1.030708313, -0.5072783828, -0.1645065546, 0.4875376225, 1.462014675, 1.664208174, 0.4456632137, -0.628115952, -2.271386862, -3.838087559, -4.234099865, -3.650250912, -2.827120066, -1.724626899, 0.2099701911, 2.488535643, 3.416950703, 2.980858803, 2.92941308, 2.996412039, 2.954537868, 2.536391973, 2.018345833, 1.107278705, 0.2356930375, -0.2793620527, -0.932602644, -1.087537885, -1.002592683, -1.178465128, -1.280758262, -1.433898926, -1.472782373, -1.886142492]","[0.7469354868, 0.8013024926, 0.8849910498, 0.9468411207, 0.9607383013, 0.9272934198, 0.8668177724, 0.7997753024, 0.755793035, 0.6501133442, 0.4889976382, 0.322995007, 0.2138028294, 0.1446223408, 0.06704246253, 0.01145372353, -0.01038470957, 0.003817907767, 0.03222314268, 0.06826419383, 0.1168279797, 0.145385921, 0.1766927689, 0.204945296, 0.248164013, 0.3152064681, 0.3845396638, 0.4616613984, 0.5152648091, 0.5326744914, 0.5213735104, 0.4923573732, 0.4460843503, 0.370337069, 0.2528982162, 0.184939459, 0.1438587606, 0.05375614017, -0.09071348608, -0.2364048511, -0.4740314186, -0.7289149761, -0.9555459619, -1.114065528, -1.339169383, -1.643991113, -1.945453048, -2.256230831, -2.494162798, -2.649933338, -2.594039202, -2.316553831, -2.031890631, -1.771967411, -1.387427688, -1.005331516, -0.6789767146, -0.3631593883, -0.1322523206, -0.04657847434, -0.0545197241, -0.06627888232, -0.03527746722, -0.02168571576, 0.1389718503, 0.1843285859, 0.2892446816, 0.3610213697, 0.4010330439, 0.4260784984, 0.4211915731, 0.4508185387, 0.5384777188, 0.649197042, 0.7319692969, 0.7609853745, 0.7571674585, 0.7105889916, 0.6554583907, 0.6093381047, 0.5415320396, 0.5074763298, 0.4963280261, 0.5039638281, 0.4821254015, 0.3486513495, 0.1734857261, 0.03039054573, -0.08353582025, -0.09865473956, -0.05146539584, 0.0354301855, 0.1204931661, 0.1802052408, 0.1664607823, 0.1653917581, 0.1934915632, 0.2475531399, 0.3379611969, 0.4218024611, 0.4807509482, 0.5757405162, 0.751822412, 0.9126327038, 1.022588372, 1.049008369, 1.037860036, 0.935998261, 0.7903069258, 0.6823364496, 0.5099197626, 0.188910082, -0.243887946, -0.7504479289, -1.088103771, -1.351081252, -1.400103092, -1.421788812, -1.373988628, -1.109942198, -0.5893322229, 0.01863138936, 0.5876523852, 0.9217956662, 1.188132882, 1.362993121, 1.424843192, 1.381166339, 1.272890449, 1.157589674, 1.025031924, 0.9237809777, 0.8535314798, 0.7661777139, 0.6960809231, 0.5949827433, 0.4807509482, 0.3185662329, 0.2193006277, 0.2177734673, 0.2721404731, 0.3799581826, 0.5093088746, 0.6007859707, 0.6545420885, 0.6954700947, 0.7562511563, 0.8390234113, 0.920268476, 0.9837985039, 1.040303469, 1.037860036, 0.9233227968, 0.7732026577, 0.6513350606, 0.4280638099, 0.1061378345, -0.2390010208, -0.4923573732, -0.825584352, -1.24082005, -1.647809029, -1.812131763, -1.892002344, -1.897500157, -1.663996935, -1.541671157, -1.659873605, -1.97110939, -2.187966585, -2.257910728, -2.171778679, -1.891238809, -1.498452425, -1.204779029, -0.9760099649, -0.8220719099, -0.6258314252, -0.3972151279, -0.2666426897, -0.2921462953, -0.3570507467, -0.3969096839, -0.4205807149, -0.4037819207, -0.3903428912, -0.3529273868, -0.2692388594, -0.192727983, -0.1249219403, -0.01802052557, 0.09086620808, 0.184786737, 0.2402227521, 0.2803871334, 0.2736676335, 0.2880229652, 0.3240640163, 0.3677408695, 0.4182899892, 0.4697553813, 0.4850270152, 0.476169467, 0.4433354437, 0.3726277947, 0.3046690524, 0.2374738604, 0.1751656085, 0.1695151031, 0.2090686262, 0.2486221492, 0.259770453, 0.2461786866, 0.1798998117, 0.1247692257, 0.07513642311, 0.0719293803, 0.2026545405, 0.2979495227, 0.3970624208, 0.5042692423, 0.6407976151, 0.7573201656, 0.8130616546, 0.7823656797, 0.5917757154, 0.2015855312, -0.267406255, -0.586736083, -0.8718574047, -0.9987646937, -0.8906415105, -0.5534439087, -0.2919935882, -0.06902777404, 0.1931861341, 0.4776966274, 0.7199047208, 0.9851729274, 1.187827468, 1.289994717, 1.282511592, 1.231351614, 1.133765936, 1.054506183, 1.010218382, 1.000902653, 1.005331516, 0.9844093323, 0.9031642675]","[0.681420207, 0.7544185519, 0.7383833528, 0.6974554062, 0.6508769393, 0.6826419234, 0.705091238, 0.5497786999, 0.4218024611, 0.208305046, 0.005039638374, -0.07696902007, 0.03787364438, 0.08307767659, 0.1050688252, 0.2539672256, 0.4509712756, 0.5083925724, 0.4970915914, 0.4602869749, 0.4075998366, 0.3819434941, 0.3281873465, 0.2107485086, 0.07895433158, 0.005192354787, -0.05375614017, -0.1540907621, -0.2339613885, -0.2600758672, -0.243887946, -0.1774563491, -0.1015563458, -0.03100141138, 0.04260785133, 0.08857546002, 0.1386664063, 0.1724167168, 0.2388483137, 0.3075706363, 0.3691153228, 0.4343251884, 0.4802927971, 0.4960225821, 0.5332853794, 0.6594290137, 0.9411906004, 1.292590857, 1.367421865, 1.237307549, 1.067639709, 0.9615018964, 0.8732318878, 0.3524692357, -0.2380847335, -0.3604104817, -0.3371976018, -0.2652682364, 0.04535674304, 0.3982841372, 0.4560109079, 0.2973386645, 0.037415497, -0.3023782969, -0.6279694438, -1.0726794, -1.685682654, -2.184148788, -2.589915991, -2.73133111, -2.730873108, -2.614045143, -2.431549072, -2.203238249, -2.019215107, -1.855655909, -1.719127536, -1.604895711, -1.503033876, -1.427897453, -1.408349872, -1.427592039, -1.523650646, -1.560302496, -1.472032547, -1.282969713, -0.9837985039, -0.7014260292, -0.295353353, -0.05390885845, -0.1027780771, -0.3109304011, -0.4667010605, -0.5338962078, -0.499535054, -0.4934264123, -0.5852088928, -0.7935139537, -0.9538660645, -0.971581161, -0.9657779336, -0.999222815, -1.051146388, -1.050382733, -1.007316828, -0.9373727441, -0.814894259, -0.7212791443, -0.7673994899, -0.8894197941, -1.07939887, -1.473712444, -1.99172616, -2.615877628, -2.957504034, -3.048522949, -2.822502851, -2.408794403, -2.066251755, -1.952783465, -1.743562102, -1.216538191, -0.4943426847, 0.04444044828, 0.5123631954, 0.6812674403, 0.531452775, 0.3608686328, 0.1476766765, 0.03222314268, 0.03512475267, 0.09117163718, 0.2347249687, 0.476169467, 0.4931209683, 0.4228714705, 0.3196352422, 0.2168571651, 0.2138028294, 0.2463314086, 0.3298672438, 0.4694499373, 0.4361577928, 0.2663372457, 0.07635815442, -0.06826419383, -0.3488040566, -0.6287330389, -0.7603744864, -0.7289149761, -0.6177374721, -0.5070181489, -0.37751472, -0.248164013, -0.1149953827, 0.08796459436, 0.2234239578, 0.3379611969, 0.4865541756, 0.6357579827, 0.6423248053, 0.5655084848, 0.5494732857, 0.5451972485, 0.4831944108, 0.6803511381, 1.045953989, 1.637577057, 1.914146304, 1.630704761, 1.291521788, 1.165378213, 0.9042332768, 0.6003278494, 0.3645338416, 0.436463207, 0.5187773108, 0.8660541773, 1.168279767, 1.329395533, 1.309847832, 0.8455902338, 0.212275669, -0.4237877727, -0.829554975, -1.163392901, -1.439351201, -1.565342188, -1.592067599, -1.490205765, -1.270599723, -0.9981538057, -0.6940956116, -0.4871650338, -0.3283400834, -0.2547308207, -0.2222022265, -0.2493857294, -0.3106249869, -0.4318817258, -0.5395467281, -0.7011205554, -0.7881689072, -0.8258898258, -0.6496551633, -0.2819143236, 0.006566801574, 0.311083138, 0.3746131063, 0.3425426781, 0.3112358451, 0.3098613918, 0.3139847219, 0.2142609805, -0.009315694682, -0.2900082767, -0.668286562, -0.9338602424, -1.114981771, -1.194394231, -1.111469269, -0.6818783283, -0.1123992056, 0.1831068546, 0.2811507285, 0.3074179292, 0.1814269722, -0.04627304152, -0.2562579811, -0.6707300544, -1.194699645, -1.54976511, -1.640325904, -1.51983273, -1.383762479, -1.344208956, -1.200655699, -1.011134744, -0.6892086864, -0.2415972054, 0.1910481006, 0.4274529517, 0.6133087277, 0.6588181853, 0.6111706495, 0.5145012736, 0.3572034538, 0.1803579628, 0.07712173462, 0.09101892263]","[-0.1130100712, -0.1420261711, -0.1802052408, -0.1780672222, -0.1673770845, -0.1915062517, -0.1779145002, -0.1638645977, -0.1522581577, -0.1056796908, -0.03084869497, 0.04596760869, 0.129808858, 0.2351831198, 0.3013092875, 0.3242167234, 0.3497203588, 0.4024074674, 0.4975497425, 0.5986479521, 0.6788240075, 0.7214318514, 0.7502952218, 0.7594582438, 0.7330383062, 0.6837109327, 0.6197227836, 0.5299255848, 0.4317290187, 0.3291036487, 0.2461786866, 0.1501201391, 0.07864890248, 0.02290744707, -0.002138028387, -0.02977968007, -0.07712173462, -0.1475239545, -0.2495384514, -0.3220787048, -0.4080579877, -0.519540906, -0.6362161636, -0.707840085, -0.8013024926, -0.9269880056, -1.049466491, -1.148426652, -1.20370996, -1.253037333, -1.26250577, -1.244027019, -1.142470717, -0.8894197941, -0.8480336666, -0.8029823899, -0.8034405112, -0.9610437751, -1.241736293, -1.48424983, -1.524108768, -1.459051609, -1.392161846, -1.330464482, -1.319163442, -1.288620234, -1.294576168, -1.252121091, -1.170112371, -1.036638379, -0.9109528065, -0.7089090943, -0.5114469528, -0.3237585723, -0.1824959964, -0.0155770639, 0.1194241568, 0.2299907655, 0.3161227703, 0.3813326359, 0.4731151462, 0.5621487498, 0.5994115472, 0.5919284225, 0.5546656251, 0.4642575979, 0.3416263759, 0.1945605874, -0.06322455406, -0.3207042515, -0.4821254015, -0.5688682795, -0.6027712822, -0.5178610086, -0.3417791128, -0.1061378345, 0.1264491081, 0.4415028691, 0.7797694802, 1.057865858, 1.216538191, 1.258993268, 1.259604096, 1.201877356, 1.178817153, 1.209665895, 1.217607141, 1.153619051, 1.015716195, 0.8943067193, 0.7898487449, 0.7113525867, 0.6287330389, 0.5334380865, 0.444404453, 0.4016439021, 0.4554000497, 0.5283984542, 0.538783133, 0.5096143484, 0.3058907688, 0.001374446787, -0.200821951, -0.3109304011, -0.3711006343, -0.4034765065, -0.4726569951, -0.5175555944, -0.5490151644, -0.5213735104, -0.4124867618, -0.3228422701, -0.2742784917, -0.2179261744, -0.08964447677, -0.004276056774, 0.03558290005, 0.1098030284, 0.2246456891, 0.3457497358, 0.4095851481, 0.4528038502, 0.5086980462, 0.5917757154, 0.6846272349, 0.7486153841, 0.8312348723, 0.8674286604, 0.8762862086, 0.8665123582, 0.8292495608, 0.7626652718, 0.6159048676, 0.4068362415, 0.2600758672, 0.1369865239, 0.04673119262, -0.06566801667, -0.1803579628, -0.3352122903, -0.5810855627, -0.8054258227, -0.9004153609, -0.9552405477, -1.041067123, -1.212567568, -1.452484846, -1.599245191, -1.690111399, -1.842522264, -1.835802794, -1.703550458, -1.366047382, -1.026406288, -0.8145887852, -0.7304421067, -0.680198431, -0.7811439037, -1.099862933, -1.387274981, -1.43736589, -1.427592039, -1.369865298, -1.247386813, -1.206917048, -1.120784998, -1.011287451, -0.908356607, -0.8011497855, -0.6835582256, -0.5128213763, -0.3407101035, -0.1463022232, 0.004886921961, 0.1936442852, 0.3784310222, 0.5225952268, 0.6273586154, 0.7026477456, 0.7825183868, 0.8281805515, 0.8284859657, 0.7962628603, 0.7034113407, 0.610407114, 0.4697553813, 0.2797762752, 0.07147123665, -0.1211040318, -0.2275473028, -0.2411390543, -0.200974673, -0.0959058404, 0.06979135424, 0.2626720667, 0.3798054755, 0.4815145433, 0.6580545902, 0.791223228, 0.9431759119, 1.025337338, 0.9943358898, 0.8703302741, 0.7570147514, 0.6977608204, 0.6860016584, 0.7422012687, 0.8321511745, 0.9156870246, 1.030071497, 1.093296051, 1.00823307, 0.7568620443, 0.5496259928, 0.3558290005, 0.1553124934, 0.02871066704, -0.04520402849, -0.1085812971, -0.1518000066, -0.1631010175, -0.133626774, -0.1533271819, -0.1553124934, -0.1114829108, -0.02412917651, 0.03985895589, 0.09010262042, 0.09941831976, 0.08979719132]"
4,0,walking,0_walking,500,18.27925359,20.76925359,"[-0.8117650747, -0.956530869, -0.9290133715, -0.8231309652, -0.8703892231, -0.9224331379, -1.031904817, -1.074377418, -1.046261668, -1.003789067, -0.970289588, -1.055832982, -1.146162033, -1.068993568, -0.9774680734, -0.9960124493, -1.149153113, -1.364507079, -1.527219057, -1.569691658, -1.354935765, -0.8913264275, -0.4366901219, -0.06340979785, 0.4773681164, 1.165304661, 1.843669891, 2.187039852, 2.301297188, 2.008774519, 1.615155339, 1.27477622, 1.012163997, 0.8937192559, 0.745962441, 0.3020938635, -0.4797609448, -1.128215909, -0.7357929349, 0.2321037948, 1.225125194, 0.6532405615, -0.8392825127, -2.328814745, -3.919443607, -5.038087845, -6.628716946, -6.737590313, -5.164309502, -3.27577424, -1.362712502, 0.7794619799, 3.404388428, 4.980660439, 4.15633297, 3.540779352, 2.306680918, 0.7573283911, 0.313459754, -0.4695914388, -1.249053478, -1.731207132, -1.956132531, -2.419143677, -2.786442041, -2.891726255, -2.824727058, -2.733799934, -2.596212626, -2.410768747, -1.956730723, -1.554736495, -1.216152072, -0.9631111026, -0.7818548083, -0.195015043, 0.3302095234, 1.085145116, 1.779063582, 3.415754318, 5.147559643, 6.147759438, 6.151947021, 5.318646431, 4.265804768, 3.438486099, 2.362314224, 1.133599758, 0.2590230405, -0.2662015259, -1.19581306, -2.264208317, -3.367299557, -4.069592953, -4.264608383, -4.134199142, -3.708875179, -3.320041418, -3.375076294, -3.248854876, -2.333600283, -1.16769743, -0.3726821244, 0.546759963, 1.73898387, 3.224328518, 4.543372154, 4.521238327, 3.187239647, 2.623131752, 1.37048912, 0.337387979, -0.7489534616, -1.586441398, -2.109273195, -2.215753794, -2.001596212, -1.701895118, -1.444068432, -1.281356573, -0.822532773, -0.009571290575, 0.6119644046, 0.8554341197, 0.6305087805, 0.1651047617, -0.1513460279, -0.2895315289, -0.3026920557, -0.2494517565, -0.2817548811, -0.2338984162, -0.209371984, -0.199800685, -0.1136590764, 0.06819544733, 0.3074777126, 0.4893322289, 0.6574280262, 0.6622136831, 0.4235295951, 0.1657029688, -0.08793623, -0.3505485058, -0.4510470629, -0.5030909777, -0.5324030519, -0.513858676, -0.471386075, -0.304486692, 0.01136590727, 0.1645065546, 0.2554338276, 0.2554338276, 0.2362912297, 0.2356930375, 0.4414757788, 0.8428717852, 1.250249863, 1.698904037, 2.439482689, 2.408974171, 0.05623133108, -0.9487541914, -0.4779663086, -0.6119644046, -0.6538388133, -0.5802595019, -0.0783649385, 0.4157529473, 0.6903293133, 2.887538671, 3.412165165, 3.896113396, 3.939184189, 3.699303865, 2.268395901, 0.5252245665, -0.2847459018, 0.06340979785, 0.6664010882, 1.135394335, 1.427318692, 1.045065284, 0.6723831892, 0.1369891018, -0.3888336718, -0.6801598072, -0.8817551732, -0.7956135273, -0.8626125455, -0.670588553, -0.70348984, -1.062413216, -1.560120344, -1.861017823, -1.875374794, -1.445863128, -0.590429008, -0.1597209126, 0.1932204217, 0.4271188378, 0.3738785386, 0.3056831062, 0.4677968323, 0.7543373108, 1.156331539, 1.238883972, 1.033699393, 0.6753742099, 0.3074777126, 0.04067798331, -0.2165504545, -0.4558327198, -0.5659025311, -0.6137589812, -0.8626125455, -1.24965167, -1.760519266, -2.284547329, -2.761915445, -3.183650494, -3.457628727, -3.335594654, -2.882753134, -2.505883455, -2.18105793, -1.812563181, -1.258026481, -0.5258227587, 0.02871387079, 1.01874423, 1.904088616, 1.803590059, 1.569093466, 1.783849239, 1.861616015, 2.27078867, 1.895115495, 0.9972088337, 0.02572284266, -0.6640082598, -0.8793623447, -1.099501967, -1.400997639, -1.382453322, -1.277169108, -1.005583763, -0.8009973764, -0.9493523836]","[-8.041080475, -7.615158081, -7.673782349, -8.248059273, -8.967103004, -9.441479683, -10.00379372, -10.23111153, -9.86022377, -9.443274498, -9.672387123, -10.19462109, -10.1210413, -9.716654778, -9.355338097, -9.114859581, -9.205188751, -9.195018768, -9.185447693, -9.401400566, -9.987043381, -10.43988514, -10.86161995, -11.57109165, -12.07777214, -11.84088326, -11.1445713, -10.69292641, -10.54696369, -10.38126087, -10.34776115, -10.63190937, -11.249856, -12.7190485, -12.71605778, -12.72024536, -12.91705513, -12.66461182, -11.55314636, -11.20140076, -9.503094673, -9.165108681, -9.31166935, -9.500701904, -10.36391354, -11.89292717, -13.42493153, -13.67199039, -12.33739376, -11.50947666, -10.9489584, -10.22273636, -8.648259163, -8.821140289, -9.881160736, -9.926026344, -10.05763149, -9.9643116, -9.422935486, -8.777471542, -8.787042618, -8.193024635, -7.907082558, -7.653443336, -7.254439831, -6.725028038, -6.448058605, -6.102295876, -5.878567219, -5.851049423, -5.91266489, -5.92642355, -6.144768715, -6.605386734, -7.396812916, -8.552546501, -9.327222824, -10.18026352, -11.16132164, -12.24885941, -12.85185051, -13.12702465, -12.80937767, -11.76431274, -10.46740246, -9.731011391, -9.12084198, -8.840881348, -8.722436905, -9.829715729, -12.04307652, -13.54995632, -14.19542027, -14.85883045, -14.59980774, -13.54337597, -12.12742329, -10.40159988, -9.097511292, -8.484351158, -8.440083504, -8.163712502, -7.941778183, -7.884350777, -7.665407181, -7.738388538, -7.93818903, -8.743373871, -10.30708313, -10.49850941, -10.54277611, -10.43809032, -10.0582304, -9.672985077, -9.533603668, -9.499505997, -9.285347939, -9.022735596, -8.720044136, -8.95513916, -9.049057007, -9.09571743, -9.424132347, -9.668199539, -9.771091461, -9.79501915, -9.878170013, -9.976275444, -10.07557774, -10.04028416, -9.880562782, -9.681360245, -9.577870369, -9.488140106, -9.488140106, -9.454640388, -9.478569031, -9.561120987, -9.772287369, -9.907482147, -9.947562218, -9.895518303, -9.867402077, -9.949954987, -10.01755238, -10.08036327, -10.24606609, -10.48176003, -10.70847988, -10.98006535, -11.29113197, -11.68834019, -12.53898907, -13.1264267, -13.34058475, -13.33998585, -12.70289707, -12.0155592, -11.41496086, -10.59601688, -10.21914768, -9.707083702, -10.04148006, -9.734002113, -9.097511292, -10.07019424, -11.24925709, -11.16849995, -11.2570343, -11.07039356, -11.05424213, -10.54516983, -9.963713646, -9.435498238, -8.537590981, -7.549953461, -7.805387497, -8.413763046, -8.80738163, -9.359525681, -9.827920914, -10.12463093, -10.33160973, -10.28614616, -9.393025398, -9.26919651, -9.56770134, -10.03131104, -9.867402077, -9.800403595, -9.924830437, -9.74477005, -9.550951958, -9.489336014, -9.316454887, -9.393025398, -9.636494637, -10.22273636, -10.6737833, -11.12183952, -11.23430252, -11.06022453, -10.37408257, -9.797411919, -9.259027481, -8.822935104, -8.553144455, -8.648259163, -8.822337151, -9.086145401, -9.283554077, -9.425328255, -9.457033157, -9.346963882, -9.175278664, -9.150752068, -9.427721024, -10.15513897, -11.77388382, -13.5284214, -14.66919899, -14.78166199, -13.92503166, -12.27458191, -10.48654556, -9.555737495, -8.923434258, -8.536395073, -8.102695465, -7.677969456, -7.36151886, -7.022336483, -6.823133945, -7.377670288, -8.365905762, -9.462417603, -11.03151035, -12.64188004, -13.51346588, -13.27837086, -12.16810131, -10.70309544, -9.493523598, -8.97667408, -8.638090134, -8.483154297, -8.424530029, -8.512466431, -8.557332039, -8.836693764]","[-0.1280160099, -0.9158528447, -1.452443361, -1.484746456, -1.254437327, -1.181456208, -0.8452646136, -0.4492524564, -0.8781659007, -0.9134600163, -1.005583763, -0.932602644, -0.4731806815, -0.1393819153, 0.2697907388, 0.865005374, 0.7776673436, 0.6095715761, 0.6233302951, 0.6981059909, 0.2500499785, 0.05742774159, 0.1764706671, 0.3840480447, 0.3828516304, 0.08075776696, -0.214157626, -0.4061816335, -0.7974081635, -1.324427366, -2.163709879, -2.61714983, -2.574079037, -2.60279274, -2.340180635, -1.709671736, -0.2679961324, 0.6317051649, 1.286740422, 2.53280282, 2.011167526, 0.708275497, -2.784049034, -4.136591911, -3.320041418, -0.7722834945, -0.1944168359, 0.3116651475, 0.5461617708, 0.8267202377, 1.005583763, 1.468594909, 1.790429592, 0.6077769399, -0.6664010882, -2.733201742, -3.2895329, -3.112463951, -2.455035925, -1.725823283, -1.848455548, -1.205384374, -1.036690354, -0.394815743, 0.1088734269, 0.3272185028, 0.4253242314, 0.2410768867, -0.2745763958, -0.7668996453, -0.8033902049, -0.8979067206, -1.171286702, -1.642074585, -2.077568293, -3.165106058, -4.010370731, -4.444069862, -4.323232174, -4.012165546, -3.726821184, -3.241078377, -3.535993576, -3.896711588, -4.05523634, -4.034897327, -3.766901016, -3.611367464, -3.513859987, -3.288336515, -2.280958176, -1.030708313, -0.5072783828, -0.1645065546, 0.4875376225, 1.462014675, 1.664208174, 0.4456632137, -0.628115952, -2.271386862, -3.838087559, -4.234099865, -3.650250912, -2.827120066, -1.724626899, 0.2099701911, 2.488535643, 3.416950703, 2.980858803, 2.92941308, 2.996412039, 2.954537868, 2.536391973, 2.018345833, 1.107278705, 0.2356930375, -0.2793620527, -0.932602644, -1.087537885, -1.002592683, -1.178465128, -1.280758262, -1.433898926, -1.472782373, -1.886142492, -2.668595552, -3.177668571, -2.872583628, -2.236092806, -1.785643935, -1.325025558, -0.9936196208, -0.7100701332, -0.5611169338, -0.5078766346, -0.4929214716, -0.4534398913, -0.3050848842, -0.1381855011, 0.0382851623, 0.3146561682, 0.4001995921, 0.4522434771, 0.5700899959, 0.6221339107, 0.6981059909, 0.4576273263, -0.151944235, -0.5557330847, -0.7483552694, -0.7441678643, -0.7076773047, -0.890130043, -1.118644595, -1.273579836, -1.407577872, -1.417149186, -1.095314622, -0.6873382926, -0.6472585201, -1.163509965, -1.859821439, -2.316252232, -2.590828657, -1.033699393, 1.420738459, 1.686341763, 0.2075773627, -0.02572284266, 0.8009973764, 2.042274237, 3.557528973, 3.26141715, 3.817150354, 4.071985722, 3.742374659, 3.088535786, 1.473978758, 0.06041877344, -0.4061816335, -0.4737788737, -0.3397808075, -0.1483550072, 0.204586342, 0.3816552162, 0.471386075, 0.6203392744, 0.5395814776, 0.2913261652, 0.2823530734, 0.3337987661, 0.6137589812, 0.9882357717, 1.087537885, 0.8668000102, 0.8937192559, 0.7866404653, 0.4205385745, -0.0143569354, -0.2171486616, -0.6137589812, -0.879960537, -1.158126116, -1.533201098, -1.840080619, -1.898704767, -1.363908887, -0.679561615, -0.442073971, -0.4594219327, -0.2512463629, 0.1920240223, 0.5497509837, 0.6071787477, 0.6556333899, 0.5359922647, 0.3990031779, 0.3978067636, 0.5150550604, 0.8560323119, 1.052842021, 0.6723831892, -0.151944235, -0.7920243144, -1.180858016, -1.465603828, -1.575673699, -1.360917926, -1.054038405, -0.799800992, -0.7525427341, -0.5551348329, -0.1292124242, -0.233300209, -0.643071115, -1.271785259, -0.7016952634, 0.4821537733, 1.32263267, 1.875972986, 1.754537225, 1.584048629, 1.691725612, 1.737189293, 1.819741607, 1.581057549, 1.39022994, 0.9936196208, 0.4863412082, 0.01495514158]","[1.362993121, 1.424843192, 1.381166339, 1.272890449, 1.157589674, 1.025031924, 0.9237809777, 0.8535314798, 0.7661777139, 0.6960809231, 0.5949827433, 0.4807509482, 0.3185662329, 0.2193006277, 0.2177734673, 0.2721404731, 0.3799581826, 0.5093088746, 0.6007859707, 0.6545420885, 0.6954700947, 0.7562511563, 0.8390234113, 0.920268476, 0.9837985039, 1.040303469, 1.037860036, 0.9233227968, 0.7732026577, 0.6513350606, 0.4280638099, 0.1061378345, -0.2390010208, -0.4923573732, -0.825584352, -1.24082005, -1.647809029, -1.812131763, -1.892002344, -1.897500157, -1.663996935, -1.541671157, -1.659873605, -1.97110939, -2.187966585, -2.257910728, -2.171778679, -1.891238809, -1.498452425, -1.204779029, -0.9760099649, -0.8220719099, -0.6258314252, -0.3972151279, -0.2666426897, -0.2921462953, -0.3570507467, -0.3969096839, -0.4205807149, -0.4037819207, -0.3903428912, -0.3529273868, -0.2692388594, -0.192727983, -0.1249219403, -0.01802052557, 0.09086620808, 0.184786737, 0.2402227521, 0.2803871334, 0.2736676335, 0.2880229652, 0.3240640163, 0.3677408695, 0.4182899892, 0.4697553813, 0.4850270152, 0.476169467, 0.4433354437, 0.3726277947, 0.3046690524, 0.2374738604, 0.1751656085, 0.1695151031, 0.2090686262, 0.2486221492, 0.259770453, 0.2461786866, 0.1798998117, 0.1247692257, 0.07513642311, 0.0719293803, 0.2026545405, 0.2979495227, 0.3970624208, 0.5042692423, 0.6407976151, 0.7573201656, 0.8130616546, 0.7823656797, 0.5917757154, 0.2015855312, -0.267406255, -0.586736083, -0.8718574047, -0.9987646937, -0.8906415105, -0.5534439087, -0.2919935882, -0.06902777404, 0.1931861341, 0.4776966274, 0.7199047208, 0.9851729274, 1.187827468, 1.289994717, 1.282511592, 1.231351614, 1.133765936, 1.054506183, 1.010218382, 1.000902653, 1.005331516, 0.9844093323, 0.9031642675, 0.7953465581, 0.6204863787, 0.4149302244, 0.2020436823, 0.01725694351, -0.08811730891, -0.1713477075, -0.1941024363, -0.1791362315, -0.1617265791, -0.1689042449, -0.2057088763, -0.2623666227, -0.330172658, -0.366061002, -0.377209276, -0.3588833213, -0.3231477141, -0.2712241709, -0.1737911552, -0.05925392732, 0.07819075137, 0.169209674, 0.2428189367, 0.279470861, 0.2501493096, 0.1262963861, -0.001985311974, -0.1989893466, -0.5047274232, -0.8761335015, -1.143387079, -1.415069342, -1.638798714, -1.833512068, -2.032654047, -2.230574369, -2.520430088, -2.796082973, -2.880076885, -2.727971554, -2.346333504, -1.96591711, -1.782657504, -1.694387436, -1.521512628, -1.271668673, -0.8584184051, -0.516333878, -0.2590068579, -0.004123340361, 0.1922698319, 0.3585779071, 0.4650211632, 0.5638286471, 0.6805039048, 0.7790058851, 0.845895648, 0.872926414, 0.8817839622, 0.8578075171, 0.8429940343, 0.8677340746, 0.908356607, 0.897208333, 0.8550586104, 0.8066475391, 0.7649559975, 0.7565566301, 0.7588473558, 0.7489207983, 0.7486153841, 0.7476990819, 0.7119634151, 0.6253733039, 0.5045747161, 0.3379611969, 0.2377792895, 0.1609629989, 0.06520986557, -0.0239764601, -0.1339322031, -0.1867720485, -0.2052507252, -0.2110539377, -0.2208277881, -0.2215913683, -0.1904372424, -0.1492038369, -0.08200865984, 0.01267545391, 0.1073595658, 0.1971567571, 0.2664899528, 0.3400992155, 0.3726277947, 0.3944662213, 0.432798028, 0.4830417037, 0.4531092942, 0.3355177343, 0.1912008226, 0.09804387391, -0.00122173049, -0.06719517708, -0.09926560521, -0.1003346145, -0.04657847434, 0.054061573, 0.0731511116, -0.03054326214, -0.2147191316, -0.3156646192, -0.2602286041, -0.1348485053, -0.02061670274, 0.1073595658, 0.1780672222, 0.2050980031, 0.235793978, 0.3094032407, 0.4108068645, 0.484110713, 0.5027421117, 0.4909829497]","[0.6812674403, 0.531452775, 0.3608686328, 0.1476766765, 0.03222314268, 0.03512475267, 0.09117163718, 0.2347249687, 0.476169467, 0.4931209683, 0.4228714705, 0.3196352422, 0.2168571651, 0.2138028294, 0.2463314086, 0.3298672438, 0.4694499373, 0.4361577928, 0.2663372457, 0.07635815442, -0.06826419383, -0.3488040566, -0.6287330389, -0.7603744864, -0.7289149761, -0.6177374721, -0.5070181489, -0.37751472, -0.248164013, -0.1149953827, 0.08796459436, 0.2234239578, 0.3379611969, 0.4865541756, 0.6357579827, 0.6423248053, 0.5655084848, 0.5494732857, 0.5451972485, 0.4831944108, 0.6803511381, 1.045953989, 1.637577057, 1.914146304, 1.630704761, 1.291521788, 1.165378213, 0.9042332768, 0.6003278494, 0.3645338416, 0.436463207, 0.5187773108, 0.8660541773, 1.168279767, 1.329395533, 1.309847832, 0.8455902338, 0.212275669, -0.4237877727, -0.829554975, -1.163392901, -1.439351201, -1.565342188, -1.592067599, -1.490205765, -1.270599723, -0.9981538057, -0.6940956116, -0.4871650338, -0.3283400834, -0.2547308207, -0.2222022265, -0.2493857294, -0.3106249869, -0.4318817258, -0.5395467281, -0.7011205554, -0.7881689072, -0.8258898258, -0.6496551633, -0.2819143236, 0.006566801574, 0.311083138, 0.3746131063, 0.3425426781, 0.3112358451, 0.3098613918, 0.3139847219, 0.2142609805, -0.009315694682, -0.2900082767, -0.668286562, -0.9338602424, -1.114981771, -1.194394231, -1.111469269, -0.6818783283, -0.1123992056, 0.1831068546, 0.2811507285, 0.3074179292, 0.1814269722, -0.04627304152, -0.2562579811, -0.6707300544, -1.194699645, -1.54976511, -1.640325904, -1.51983273, -1.383762479, -1.344208956, -1.200655699, -1.011134744, -0.6892086864, -0.2415972054, 0.1910481006, 0.4274529517, 0.6133087277, 0.6588181853, 0.6111706495, 0.5145012736, 0.3572034538, 0.1803579628, 0.07712173462, 0.09101892263, 0.07513642311, -0.1059851199, -0.3964515328, -0.5780312419, -0.6307183504, -0.6467535496, -0.6711881757, -0.7133378983, -0.7415903807, -0.7564038634, -0.7654141784, -0.770911932, -0.7556403279, -0.7244861722, -0.7073819637, -0.7009678483, -0.6893614531, -0.7093672752, -0.743881166, -0.7878634334, -0.833983779, -0.8272642493, -0.8434522152, -0.9433286786, -1.039998055, -1.056491494, -0.9453139901, -0.7884743214, -0.624915123, -0.5138903856, -0.4660901725, -0.4981606007, -0.5852088928, -0.5711590052, -0.3935499489, -0.05742133409, 0.2948952019, 0.7380779386, 0.793972075, 0.165086329, -0.3810271919, -0.7159340382, -1.150411963, -1.857183099, -2.406809092, -2.830749512, -2.874731779, -2.737745285, -2.469422817, -2.20262742, -1.706910253, -1.139416456, -0.7357872128, -0.7990117669, -1.184773088, -1.749059916, -2.345264435, -2.850908041, -3.188869238, -3.549585104, -3.824932814, -4.044996738, -4.160297871, -4.275751114, -4.265519142, -4.105778217, -3.949702024, -3.718794823, -3.505602837, -3.380833626, -3.359300613, -3.328910112, -3.242167234, -3.127477407, -2.946661234, -2.686585426, -2.380389214, -2.203696489, -2.139555454, -2.143373489, -2.178803682, -2.224313021, -2.227520227, -2.210721254, -2.241722822, -2.35992527, -2.500118732, -2.54669714, -2.487748623, -2.344959021, -2.138180971, -1.917811394, -1.711949825, -1.540754914, -1.299463034, -1.018312335, -0.7751879692, -0.6866125464, -0.6763805151, -0.6220135093, -0.5355761051, -0.5755877495, -0.7107416987, -0.9392052889, -1.196532249, -1.509753466, -1.870469332, -2.401922226, -2.86022377, -3.146566868, -3.216052771, -3.222314119, -2.985756636, -2.788905382, -2.588694096, -2.371073484, -2.184148788, -1.908648491, -1.571145415, -1.345125318, -1.123533845, -1.06702888, -1.044274092, -1.058934927, -1.104597092]","[-0.4034765065, -0.4726569951, -0.5175555944, -0.5490151644, -0.5213735104, -0.4124867618, -0.3228422701, -0.2742784917, -0.2179261744, -0.08964447677, -0.004276056774, 0.03558290005, 0.1098030284, 0.2246456891, 0.3457497358, 0.4095851481, 0.4528038502, 0.5086980462, 0.5917757154, 0.6846272349, 0.7486153841, 0.8312348723, 0.8674286604, 0.8762862086, 0.8665123582, 0.8292495608, 0.7626652718, 0.6159048676, 0.4068362415, 0.2600758672, 0.1369865239, 0.04673119262, -0.06566801667, -0.1803579628, -0.3352122903, -0.5810855627, -0.8054258227, -0.9004153609, -0.9552405477, -1.041067123, -1.212567568, -1.452484846, -1.599245191, -1.690111399, -1.842522264, -1.835802794, -1.703550458, -1.366047382, -1.026406288, -0.8145887852, -0.7304421067, -0.680198431, -0.7811439037, -1.099862933, -1.387274981, -1.43736589, -1.427592039, -1.369865298, -1.247386813, -1.206917048, -1.120784998, -1.011287451, -0.908356607, -0.8011497855, -0.6835582256, -0.5128213763, -0.3407101035, -0.1463022232, 0.004886921961, 0.1936442852, 0.3784310222, 0.5225952268, 0.6273586154, 0.7026477456, 0.7825183868, 0.8281805515, 0.8284859657, 0.7962628603, 0.7034113407, 0.610407114, 0.4697553813, 0.2797762752, 0.07147123665, -0.1211040318, -0.2275473028, -0.2411390543, -0.200974673, -0.0959058404, 0.06979135424, 0.2626720667, 0.3798054755, 0.4815145433, 0.6580545902, 0.791223228, 0.9431759119, 1.025337338, 0.9943358898, 0.8703302741, 0.7570147514, 0.6977608204, 0.6860016584, 0.7422012687, 0.8321511745, 0.9156870246, 1.030071497, 1.093296051, 1.00823307, 0.7568620443, 0.5496259928, 0.3558290005, 0.1553124934, 0.02871066704, -0.04520402849, -0.1085812971, -0.1518000066, -0.1631010175, -0.133626774, -0.1533271819, -0.1553124934, -0.1114829108, -0.02412917651, 0.03985895589, 0.09010262042, 0.09941831976, 0.08979719132, 0.08872817457, 0.1136209369, 0.1466076523, 0.1875356287, 0.2339613885, 0.2718350291, 0.3207042515, 0.3535382748, 0.3935499489, 0.4350887835, 0.4911356568, 0.5326744914, 0.5487096906, 0.5270239711, 0.4856378734, 0.4112650156, 0.3320052624, 0.2499966025, 0.1837177277, 0.1101084575, 0.04627304152, 0.001985311974, -0.004276056774, 0.01466076635, 0.05665775016, 0.1079704314, 0.1429424733, 0.1354593635, 0.08781187981, 0.01450804994, -0.06276640296, -0.1223257631, -0.2015855312, -0.3220787048, -0.464715749, -0.676227808, -0.925460875, -1.181413412, -1.191645384, -1.151022792, -1.183398724, -1.265254617, -1.290147424, -1.264949203, -1.238834739, -1.170570493, -1.139569163, -1.351844788, -1.509753466, -1.588096976, -1.593289256, -1.621083617, -1.572825313, -1.440267563, -1.311833143, -1.246623278, -1.211040378, -1.197906733, -1.207069755, -1.150411963, -1.071304917, -0.9931141734, -0.9303477407, -0.8199338913, -0.6892086864, -0.6101016402, -0.5482515693, -0.5041165352, -0.4993823469, -0.4437935948, -0.3691153228, -0.3054326177, -0.2574796975, -0.2420553565, -0.2971859276, -0.357814312, -0.4022547603, -0.4219551682, -0.4068362415, -0.3675881624, -0.3321579695, -0.2981022298, -0.2845104933, -0.2503020465, -0.2076941878, -0.137444675, -0.06261368841, 0.006719517522, 0.0606283769, 0.1125519201, 0.1501201391, 0.1634064466, 0.1521054506, 0.1346957833, 0.1186605766, 0.1043052375, 0.08475755155, 0.08643743396, 0.1243110746, 0.2026545405, 0.2887865305, 0.3743076921, 0.4470006526, 0.5510004759, 0.6253733039, 0.6811147332, 0.7157813311, 0.7116580009, 0.6504187584, 0.5841398835, 0.5326744914, 0.4230241776, 0.2194533348, -0.0201585535, -0.2536617815, -0.3759875596, -0.4349360466, -0.4457789063, -0.4673119187, -0.488081336, -0.515112102, -0.5345070958, -0.5125159621, -0.4870123267, -0.4653266072]"
