Time (s),Acceleration x (m/s^2),Acceleration y (m/s^2),Acceleration z (m/s^2)
13.27925359,1.13419795,-7.896314621,-0.09571290761
13.28925359,1.272981644,-7.872386456,-0.08075776696
13.29925359,1.545763373,-8.32762146,0.003589233849
13.30925359,1.709671736,-8.842676163,0.5419743061
13.31925359,1.663609982,-10.03071213,1.467996716
13.32925359,1.330409408,-11.02552891,2.059023857
13.33925359,0.9439685345,-11.31446171,2.33838582
13.34925359,0.3744767308,-10.89332485,2.209771633
13.35925359,0.1010967568,-10.35553837,1.890928149
13.36925359,-0.09631111473,-9.73340416,1.118644595
13.37925359,-0.1028913707,-9.407979965,0.4073780477
13.38925359,0.2500499785,-9.179466248,-0.1262213886
13.39925359,0.4606183469,-9.083752632,-0.1250249892
13.40925359,0.685543716,-8.965308189,0.1399801224
13.41925359,0.6382854581,-8.900702477,0.509073019
13.42925359,0.107078813,-9.181859016,0.1938186288
13.43925359,-0.4199403822,-9.661021233,-0.4815555513
13.44925359,-0.6406782866,-9.829116821,-1.192223907
13.45925359,-0.6514459848,-10.07318497,-2.002792597
13.46925359,-0.5850451589,-9.894321442,-2.279163599
13.47925359,-0.4121637046,-9.815957069,-1.765903115
13.48925359,-0.4683950245,-9.911071777,-1.101296663
13.49925359,-0.6538388133,-9.815358162,-0.3445664644
13.50925359,-0.6867401004,-9.720842361,-0.1333998591
13.51925359,-0.5192425251,-9.664610863,0.0783649385
13.52925359,-0.2991028428,-9.493523598,0.2237289101
13.53925359,-0.107078813,-9.399007797,0.4983053207
13.54925359,-0.1016949639,-9.602396965,0.8177471161
13.55925359,-0.2213360965,-9.631709099,0.9080761671
13.56925359,-0.2021935135,-9.707681656,0.8644071817
13.57925359,-0.1836491376,-9.725627899,0.6299105883
13.58925359,-0.09272187948,-9.815957069,0.6005984545
13.59925359,0.05563312769,-9.892526627,0.5533402562
13.60925359,0.1848455518,-9.825528145,0.6113662124
13.61925359,0.2662015259,-9.864411354,0.7118647099
13.62925359,0.07058826834,-9.779465675,0.888933599
13.63925359,0.09451649338,-9.664610863,0.8949156404
13.64925359,0.151944235,-9.594022751,1.039083242
13.65925359,0.09032905847,-9.548559189,1.4267205
13.66925359,-0.05324030295,-9.69093132,1.248455167
13.67925359,-0.3128615618,-9.76211834,0.3559323549
13.68925359,-0.5054838061,-9.948160172,-0.536590457
13.69925359,-0.3876372576,-10.51107121,-1.540379524
13.70925359,-0.1447657645,-11.29531956,-2.397010088
13.71925359,0.5048855543,-11.64526939,-2.976073265
13.72925359,1.546361685,-11.57109165,-3.253640652
13.73925359,2.389233351,-11.66860008,-2.772683144
13.74925359,2.787638426,-11.966506,-1.838884234
13.75925359,2.895315409,-12.73938751,-0.6849454641
13.76925359,2.748156786,-13.39442253,-0.04307080805
13.77925359,2.930609465,-13.51585865,0.2440679073
13.78925359,2.992224693,-13.03190994,0.228514567
13.79925359,2.657827854,-12.76451206,0.2715853751
13.80925359,2.350948334,-12.4426775,-0.01914258115
13.81925359,2.215753794,-11.74516964,-0.55154562
13.82925359,2.061416626,-10.99023438,-1.160519004
13.83925359,1.625324726,-10.42851925,-1.512862086
13.84925359,0.9738788009,-9.926624298,-2.216351986
13.85925359,0.37986058,-9.469595909,-2.670390129
13.86925359,-0.2075773627,-9.213563919,-2.335993052
13.87925359,-0.6747759581,-9.244669914,-1.284347534
13.88925359,-0.4815555513,-9.437292099,-0.3176472187
13.89925359,-0.9966106415,-10.13121128,0.3224328458
13.90925359,-0.06340979785,-9.769296646,0.7782655358
13.91925359,0.9134600163,-8.790632248,1.990230203
13.92925359,-0.1423729509,-9.37328434,2.480758905
13.93925359,1.721037745,-9.638887405,1.542772412
13.94925359,1.53080833,-9.957731247,1.975873351
13.95925359,0.6993024349,-10.57627583,2.102692842
13.96925359,0.3834498227,-10.4793663,1.834098577
13.97925359,0.6885347366,-10.36271667,1.615753531
13.98925359,1.716850281,-10.20837975,1.529611826
13.99925359,2.418545485,-10.25085258,0.784845829
14.00925359,3.383451223,-10.07976532,0.3972085714
14.01925359,3.650849104,-10.04088211,0.2644068897
14.02925359,1.96151638,-10.15992451,-0.7962117195
14.03925359,1.271785259,-9.641280174,-1.169492126
14.04925359,0.9499505758,-9.644271851,-2.200200319
14.05925359,0.9086744189,-9.613762856,-1.012762189
14.06925359,0.6849454641,-9.254241943,-0.3260220885
14.07925359,0.4743770957,-8.882157326,-0.2051845491
14.08925359,0.4175475538,-8.47238636,0.09930214286
14.09925359,-0.04187439755,-8.462217331,-0.1088734269
14.10925359,-0.4342973232,-8.32762146,-0.2578266263
14.11925359,-0.6783652306,-8.134400368,-0.5449653864
14.12925359,-0.8847461939,-8.056035995,-0.8129615188
14.13925359,-1.067198873,-7.825128078,-1.032503009
14.14925359,-1.368694544,-7.709076405,-1.258026481
14.15925359,-1.469193101,-7.684549809,-1.411765337
14.16925359,-1.512263894,-7.709076405,-1.292124271
14.17925359,-1.401595831,-7.724031448,-1.14795661
14.18925359,-1.392024517,-7.902296543,-0.9912267923
14.19925359,-1.338784218,-8.013563156,-0.8195417523
14.20925359,-1.009771109,-8.035098076,-1.11984098
14.21925359,-0.6562315822,-8.199007034,-1.617548108
14.22925359,-0.05503492057,-8.309076309,-2.386840582
14.23925359,0.604187727,-8.41077137,-2.77746892
14.24925359,1.316650629,-8.917451859,-2.830709219
14.25925359,2.067398787,-9.558130264,-2.870190859
14.26925359,3.220739365,-10.02233791,-2.68713975
14.27925359,4.130012035,-10.29212856,-2.287538528
14.28925359,4.776073933,-10.77188969,-2.024926186
14.29925359,4.771288395,-11.36471081,-2.09072876
14.30925359,4.474578381,-11.57946682,-2.232503414
14.31925359,4.058825493,-11.5764761,-2.061416626
14.32925359,3.714857101,-11.33779144,-1.94177556
14.33925359,3.355933666,-11.02193928,-2.056032896
14.34925359,3.144767046,-10.77069283,-2.380858421
14.35925359,3.086741209,-10.57208824,-2.796013355
14.36925359,2.857030153,-10.82931709,-2.976073265
14.37925359,2.652443886,-11.69312572,-2.718844652
14.38925359,2.400599241,-12.62752342,-1.763510346
14.39925359,1.24965167,-13.28794193,-1.197607756
14.40925359,-0.1369891018,-13.46082401,-1.217946768
14.41925359,-1.452443361,-13.05882931,-1.431506157
14.42925359,-1.844866276,-12.21775246,-1.250249863
14.43925359,-1.940579176,-10.91306591,-0.97926265
14.44925359,-1.668395638,-9.69811058,-0.8985049129
14.45925359,-1.429113269,-9.104690552,-0.8315058947
14.46925359,-1.171286702,-8.721838951,-0.7752745152
14.47925359,-1.013360381,-8.511270523,-0.7734799385
14.48925359,-0.8033902049,-8.285746574,-0.8428717852
14.49925359,-0.6358926296,-8.209176064,-0.851246655
14.50925359,-0.5790630579,-8.05065155,-0.8979067206
14.51925359,-0.6358926296,-8.079963684,-0.8410771489
14.52925359,-0.8315058947,-8.106883049,-0.3296113312
14.53925359,-1.016949654,-8.357531548,-0.08315058798
14.54925359,-1.049252748,-8.639883995,0.614357233
14.55925359,-1.063011408,-9.354740143,0.9541380405
14.56925359,-0.9667003751,-10.18385315,1.159920812
14.57925359,-0.6125625968,-10.58166027,1.216750264
14.58925359,-0.1776670814,-10.64088249,0.8727820516
14.59925359,0.3864408433,-10.33041382,1.006181955
14.60925359,0.5916253924,-9.668798447,0.8392825127
14.61925359,0.5826523304,-9.364909172,1.257428288
14.62925359,0.6927221417,-9.341579437,1.368096352
14.63925359,0.8835497499,-9.130413055,1.313061476
14.64925359,1.074377418,-8.937192917,1.051645517
14.65925359,1.265205026,-8.878568649,0.851246655
14.66925359,1.17906332,-9.097511292,0.6580262184
14.67925359,1.293918848,-8.94377327,0.6167500615
14.68925359,1.298106313,-8.919246674,0.4827519655
14.69925359,1.178465128,-9.180662155,0.1932204217
14.70925359,1.149153113,-9.388239861,-0.2679961324
14.71925359,1.090528965,-9.418149948,-0.9002995491
14.72925359,0.5742774606,-9.522835732,-1.070788145
14.73925359,-0.1764706671,-9.643673897,-0.993021369
14.74925359,-0.4540380836,-9.414560318,-0.9254241586
14.75925359,-0.4301098585,-9.262018204,-0.8189435601
14.76925359,-0.4295116663,-9.34038353,-0.546759963
14.77925359,-0.4671986103,-9.638887405,-0.2470589429
14.78925359,-0.304486692,-9.486345291,-0.08255238086
14.79925359,-0.1704886109,-9.34815979,-0.0382851623
14.80925359,-0.1459621787,-9.324830055,0.1010967568
14.81925359,-0.1651047617,-9.248857498,0.2213360965
14.82925359,-0.1555334777,-9.477970123,0.07118647546
14.83925359,-0.01196411345,-9.673583984,0.03230310604
14.84925359,0.1597209126,-9.87398243,-0.02093719877
14.85925359,0.5473581553,-10.06540871,0.02213360928
14.86925359,0.8392825127,-10.1904335,0.171086818
14.87925359,1.00737834,-10.29751205,0.4199403822
14.88925359,1.045663476,-10.45125103,0.5294120312
14.89925359,0.9834501147,-10.69472122,0.4462614357
14.90925359,0.8590233326,-10.89930725,0.2338984162
14.91925359,0.7339983582,-11.06501007,-0.06460621208
14.92925359,0.5808576941,-11.16491032,-0.228514567
14.93925359,0.5186443329,-11.23549843,-0.4307080805
14.94925359,0.6185446382,-11.24327564,-0.6837490797
14.95925359,0.8907282352,-11.0309124,-0.9260223508
14.96925359,1.301097274,-10.73659515,-1.233500123
14.97925359,1.855633974,-10.5732851,-1.264008522
14.98925359,2.267199516,-11.00758266,-1.360917926
14.99925359,2.429911375,-11.6021986,-1.220339537
15.00925359,2.440679073,-11.90608692,-0.8249256015
15.01925359,2.111067772,-12.05204964,-0.4390829504
15.02925359,1.556531072,-12.0915308,-0.3266202807
15.03925359,0.7639086246,-11.9276228,0.1310070455
15.04925359,0.5724828243,-11.80499077,0.3607180119
15.05925359,0.8787640929,-11.43171024,0.3882354796
15.06925359,1.188634634,-10.82572746,0.0197407864
15.07925359,1.158724308,-10.134202,-0.3541377485
15.08925359,0.8841479421,-9.329017639,-1.326820135
15.09925359,0.1794617027,-8.739186287,-2.374278307
15.10925359,-1.217946768,-8.516056061,-3.077768087
15.11925359,-2.193620205,-8.928219795,-3.102892876
15.12925359,-3.674179077,-9.920044899,-2.315654039
15.13925359,-5.004588604,-11.3820591,-0.6634100676
15.14925359,-6.235097408,-12.5365963,0.8566305041
15.15925359,-6.510870457,-12.67119217,1.697707653
15.16925359,-4.496711731,-12.18185997,2.580060959
15.17925359,-2.231905222,-11.08056355,2.035693884
15.18925359,-0.1932204217,-11.3760767,2.855235577
15.19925359,4.032504559,-10.92802143,2.142174482
15.20925359,6.847062111,-9.905089378,1.216152072
15.21925359,7.447660446,-9.487542152,0.2919243574
15.22925359,5.87318325,-10.63669491,-3.59043026
15.23925359,3.419941664,-10.63729286,-3.815355778
15.24925359,2.827718258,-10.18744278,-3.105883837
15.25925359,0.446859628,-9.778867722,-2.973680258
15.26925359,1.507478237,-8.877969742,-2.992822886
15.27925359,1.003789067,-9.409176826,-1.551745534
15.28925359,0.1034895778,-8.234899521,-1.90229404
15.29925359,-0.3122633696,-7.429714203,-1.386640668
15.30925359,-0.2835494876,-7.161718369,-1.384846091
15.31925359,-0.5790630579,-7.112067223,-0.9732806087
15.32925359,-1.06660068,-6.780661106,-0.5186443329
15.33925359,-1.214357495,-6.256632805,-0.1471585929
15.34925359,-1.362712502,-5.668596745,-0.07178468257
15.35925359,-1.544566989,-5.467001438,-0.142971158
15.36925359,-1.478166223,-5.499304771,-0.3445664644
15.37925359,-1.415952802,-5.574080467,-0.6317051649
15.38925359,-1.1395818,-5.628517151,-0.9900303483
15.39925359,-0.8530412912,-5.761318684,-1.191027522
15.40925359,-0.537786901,-6.084948063,-1.469791293
15.41925359,-0.2033899277,-6.498308182,-1.892124534
15.42925359,0.02572284266,-7.031309128,-2.349751949
15.43925359,0.4881358147,-7.96331358,-3.235096216
15.44925359,1.295115232,-9.113064766,-4.388436794
15.45925359,2.23130703,-10.28016472,-5.158327579
15.46925359,3.202194929,-11.34078312,-5.324030399
15.47925359,4.767100811,-12.887743,-4.930410862
15.48925359,6.19382143,-13.63729477,-4.255036831
15.49925359,6.32363224,-13.7730875,-4.006183147
15.50925359,5.218147755,-13.22094345,-4.43808794
15.51925359,4.135993958,-12.33918858,-4.776073933
15.52925359,3.002394199,-11.16670513,-4.840082169
15.53925359,1.954337835,-10.44407272,-4.969294548
15.54925359,0.8835497499,-10.40159988,-5.044668198
15.55925359,0.2673979402,-11.35693455,-4.698905468
15.56925359,-0.04067798331,-12.97747326,-3.474976778
15.57925359,-0.5916253924,-14.17567921,-1.808375716
15.58925359,-1.436291814,-14.43589878,-0.851246655
15.59925359,-2.238485575,-14.1439743,-0.2153540403
15.60925359,-2.506481647,-12.98764324,0.102293171
15.61925359,-1.841875196,-11.70090294,0.27577281
15.62925359,-0.8775677085,-9.870991707,0.1184447184
15.63925359,-0.4336991012,-8.52981472,-0.06281159073
15.64925359,-0.4725824594,-7.887341499,-0.2404786795
15.65925359,-0.3631108403,-7.335197926,-0.4426721931
15.66925359,-0.4821537733,-7.183851719,-0.2362912297
15.67925359,-0.7214360237,-7.65703249,-0.3553341627
15.68925359,-0.6448656917,-7.843672752,-0.3128615618
15.69925359,-0.3631108403,-7.855038643,-0.7190431952
15.70925359,0.004187439568,-7.809575081,-1.11445713
15.71925359,0.3918247223,-8.001000404,-0.9996016622
15.72925359,0.5700899959,-8.469993591,-0.2548356056
15.73925359,0.4618147612,-9.159127235,0.4301098585
15.74925359,0.171086818,-9.742377281,1.104885817
15.75925359,-0.3960121572,-10.50329494,1.749153376
15.76925359,-1.093519926,-10.77906799,2.14696002
15.77925359,-1.336989641,-10.57029438,2.367697954
15.78925359,-1.011565804,-10.11685371,2.630310297
15.79925359,-0.6532405615,-9.51745224,2.535195589
15.80925359,-0.2009970993,-9.008976936,1.649253011
15.81925359,0.1848455518,-8.803792953,0.9625129104
15.82925359,0.656829834,-9.079565048,-0.004187439568
15.83925359,1.435095429,-8.989236832,-0.5563312769
15.84925359,1.607378602,-8.930612564,-0.7328019142
15.85925359,1.329213023,-8.967103004,-0.9876375198
15.86925359,1.228116274,-8.754739761,-1.331605792
15.87925359,1.094118118,-8.840283394,-1.418943882
15.88925359,1.103689432,-9.169296265,-1.62652123
15.89925359,1.002592683,-9.17109108,-2.100898266
15.90925359,0.6825526357,-9.259027481,-1.829911113
15.91925359,0.171086818,-9.537791252,-1.733001828
15.92925359,-0.1585244983,-9.714859962,-1.783251047
15.93925359,-0.3780659735,-9.787840843,-1.640878081
15.94925359,-0.3726821244,-9.69452095,-1.276570916
15.95925359,-0.3200400174,-9.653244972,-0.9984052777
15.96925359,-0.1525424421,-9.663414001,-0.8350951076
15.97925359,-0.02273181453,-9.649655342,-0.7339983582
15.98925359,0.1208375469,-9.836894035,-0.5958128572
15.99925359,0.2644068897,-9.933204651,-0.5288137794
16.00925359,0.4462614357,-9.904491425,-0.4701896608
16.01925359,0.6179464459,-9.794421196,-0.4785645306
16.02925359,0.7806583643,-9.731609344,-0.5730810165
16.03925359,0.9290133715,-9.674181938,-0.4863412082
16.04925359,1.005583763,-9.731609344,-0.5389832854
16.05925359,1.024726272,-9.808777809,-0.4336991012
16.06925359,0.9152546525,-9.919445992,-0.3056831062
16.07925359,0.8530412912,-10.00139999,-0.2632105052
16.08925359,0.733400166,-10.06839943,-0.2500499785
16.09925359,0.5946164131,-10.09232807,-0.2697907388
16.10925359,0.432502687,-10.1844511,-0.08913264424
16.11925359,0.3756731451,-10.33340454,-0.008973085321
16.12925359,0.4761717021,-10.52004433,0.004785645287
16.13925359,0.7579265833,-10.69711399,0.004785645287
16.14925359,1.063609719,-10.523036,-0.1794617027
16.15925359,1.623530149,-10.79521942,-0.2273181528
16.16925359,1.728216171,-11.10987568,-0.4348955154
16.17925359,1.737787485,-11.66381359,-0.6538388133
16.18925359,1.818545222,-12.16331577,-1.030110121
16.19925359,1.622333765,-12.19143105,-1.194018483
16.20925359,1.105484009,-12.21535969,-1.281954765
16.21925359,0.7668996453,-12.18365479,-1.019940615
16.22925359,0.6191428304,-12.24885941,-0.5946164131
16.23925359,0.6957131624,-12.06341553,-0.3487538993
16.24925359,1.030110121,-11.30608654,-0.4815555513
16.25925359,1.426122308,-10.64327526,-0.8781659007
16.26925359,1.615155339,-9.554540634,-1.914258122
16.27925359,1.57866478,-9.046664238,-3.510869026
16.28925359,0.3912265003,-8.797212601,-4.500301361
16.29925359,-1.710868239,-9.45583725,-3.578466177
16.30925359,-3.017947674,-10.18505001,-2.008176327
16.31925359,-3.909872293,-11.1936245,-0.8015955687
16.32925359,-4.127619267,-12.09452248,0.1543370634
16.33925359,-3.704089403,-12.50249863,1.91066885
16.34925359,-2.894717216,-12.19083309,2.66739893
16.35925359,-0.4432703853,-11.13679504,2.090130568
16.36925359,1.738385677,-10.89033413,2.727219582
16.37925359,4.027718544,-10.53260708,2.412563324
16.38925359,5.078765869,-9.332606316,1.983649969
16.39925359,5.019543648,-9.040083885,1.171286702
16.40925359,4.081557274,-9.27278614,-2.267199516
16.41925359,2.545963287,-9.470791817,-2.930011272
16.42925359,1.567298889,-9.359525681,-1.70249331
16.43925359,0.9888339639,-9.355937004,-1.613958836
16.44925359,0.5389832854,-8.956933022,-2.015354872
16.45925359,0.3996013701,-9.189635277,-2.237887383
16.46925359,0.2751746178,-9.025128365,-2.529213428
16.47925359,0.06041877344,-8.363512993,-2.07098794
16.48925359,0.1244267747,-8.036892891,-0.6849454641
16.49925359,-1.098903775,-7.801798344,-0.1896311939
16.50925359,-1.739582062,-7.443472862,-0.1806581169
16.51925359,-1.893320918,-7.23230648,-0.299701035
16.52925359,-2.108076811,-7.226922512,-0.3768695593
16.53925359,-2.409572363,-7.051050186,-0.3098705411
16.54925359,-2.600998163,-6.71964407,-0.4426721931
16.55925359,-2.405385017,-6.59342289,-0.6993024349
16.56925359,-1.946561217,-6.601797581,-0.822532773
16.57925359,-1.272981644,-6.467201233,-0.8763712645
16.58925359,-0.837487936,-6.232106686,-0.8925228715
16.59925359,-0.5030909777,-6.20758009,-0.9529415965
16.60925359,-0.1256231815,-6.320641041,-1.153340459
16.61925359,0.1704886109,-6.716054916,-1.399203062
16.62925359,0.7244270444,-7.5924263,-2.048854351
16.63925359,1.163509965,-9.093324661,-3.009572744
16.64925359,1.53080833,-11.10509014,-4.223331928
16.65925359,1.898704767,-12.83330631,-4.883750916
16.66925359,3.017349243,-14.71047497,-5.274379253
16.67925359,4.802394867,-15.39721584,-4.707280159
16.68925359,6.686742783,-14.35514164,-4.219144344
16.69925359,7.409375191,-13.42493153,-3.63589406
16.70925359,6.089135647,-12.03829098,-3.637090445
16.71925359,4.391427994,-10.30528927,-3.158525944
16.72925359,3.589233875,-8.800203323,-2.179861546
16.73925359,2.297708035,-8.184051514,-2.070389748
16.74925359,1.220937729,-8.61655426,-2.729014158
16.75925359,0.5898307562,-9.666405678,-3.26440835
16.76925359,0.2237289101,-11.67637634,-2.579462767
16.77925359,-0.8542376757,-13.08275795,-1.290329576
16.78925359,-2.129014015,-14.29053497,-0.4983053207
16.79925359,-3.70050025,-15.01974773,0.3529413342
16.80925359,-3.905086517,-14.55554008,1.130608678
16.81925359,-3.518047571,-12.57667542,1.508674622
16.82925359,-2.840878725,-10.26700401,1.176670551
16.83925359,-2.995215654,-8.961120605,0.5425725579
16.84925359,-3.293720484,-8.452646255,-0.446859628
16.85925359,-2.726023197,-8.266604424,-1.066002488
16.86925359,-1.884347796,-8.173882484,-1.200598717
16.87925359,-0.9619147182,-8.153543472,-1.307079315
16.88925359,0.2237289101,-8.199604988,-1.432104349
16.89925359,1.265205026,-8.062017441,-1.858624935
16.90925359,2.02073884,-7.893323898,-1.993221283
16.91925359,2.437688112,-8.007580757,-1.274178028
16.92925359,2.373081923,-8.803792953,-0.1974078715
16.93925359,1.514058471,-9.889535904,0.2907279432
16.94925359,0.5682953596,-10.58345413,0.9864411354
16.95925359,-0.2584248483,-10.88734341,1.24965167
16.96925359,-0.6831508875,-10.55952644,1.546959877
16.97925359,-1.161117196,-10.35613632,1.871785522
16.98925359,-1.289731383,-9.965508461,2.175673962
16.99925359,-1.262213945,-9.331410408,1.762912035
17.00925359,-1.11445713,-8.851051331,1.47457695
17.01925359,-0.9469595551,-8.927620888,1.5224334
17.02925359,-0.3463610709,-8.624929428,0.6939185858
17.03925359,0.3984049559,-8.328817368,0.08075776696
17.04925359,0.6897311211,-8.407182693,-0.3786641955
17.05925359,0.7417750359,-8.534002304,-0.7381857634
17.06925359,0.798604548,-8.23729229,-0.6783652306
17.07925359,0.679561615,-8.620741844,-0.6669993401
17.08925359,0.4492524564,-9.043074608,-1.269392371
17.09925359,-0.0765703246,-9.46002388,-1.216152072
17.10925359,-0.6221339107,-9.970293999,-1.537986755
17.11925359,-0.903888762,-9.975079536,-1.591825247
17.12925359,-1.01874423,-9.641879082,-1.345962763
17.13925359,-1.036690354,-9.501898766,-0.760917604
17.14925359,-0.950548768,-9.597611427,-0.7130611539
17.15925359,-0.7501499057,-9.31525898,-0.7154539824
17.16925359,-0.6628118753,-9.170493126,-0.1776670814
17.17925359,-0.7052844763,-9.033503532,0.1579262912
17.18925359,-0.7914260626,-8.985647202,0.1244267747
17.19925359,-0.9445667267,-9.081359863,0.132801652
17.20925359,-0.9631111026,-9.283554077,0.2656033039
17.21925359,-0.7716853023,-9.532406807,0.3272185028
17.22925359,-0.5132604837,-9.652048111,0.3894318938
17.23925359,-0.1310070455,-9.829116821,0.3996013701
17.24925359,0.1896311939,-10.27298546,0.2542374134
17.25925359,0.5814558864,-10.45424175,0.2452643216
17.26925359,0.8787640929,-10.69472122,0.4504488707
17.27925359,1.208375454,-10.75214863,0.4372883439
17.28925359,1.56191504,-10.61216831,0.3098705411
17.29925359,1.7670995,-10.37228775,0.2548356056
17.30925359,1.843669891,-10.28554821,0.1740778536
17.31925359,1.81495595,-10.33340454,0.1405783296
17.32925359,1.676172256,-10.50508976,0.07178468257
17.33925359,1.432104349,-10.69591713,-0.06939185411
17.34925359,1.116251707,-10.64267731,-0.237487644
17.35925359,0.8003991842,-10.63250732,-0.3248256743
17.36925359,0.4612165689,-10.84786129,-0.394815743
17.37925359,0.1507478207,-11.55135155,-0.4193421602
17.38925359,0.0933200866,-12.20160103,-0.5581258535
17.39925359,0.07417750359,-12.28714466,-0.6544370055
17.40925359,-0.04067798331,-12.28654575,-0.7316055298
17.41925359,-0.04127619043,-12.15194988,-0.8500502706
17.42925359,0.2506481707,-11.99462128,-0.7429714203
17.43925359,0.566500783,-11.85583782,-0.6209374666
17.44925359,0.7244270444,-11.8271246,-0.6299105883
17.45925359,1.049252748,-11.39581776,-0.7070791125
17.46925359,1.35912323,-10.45543861,-0.9732806087
17.47925359,1.290927768,-9.324830055,-1.224527001
17.48925359,0.5198407173,-8.842078209,-2.005185366
17.49925359,-0.6346961856,-8.200801849,-2.838485956
17.50925359,-1.992024899,-8.498707771,-2.81695056
17.51925359,-3.00837636,-8.962317467,-1.612164259
17.52925359,-3.397808075,-9.932606697,-0.3032902777
17.53925359,-3.949951887,-11.10449123,1.027717352
17.54925359,-4.199403763,-12.16570854,0.06281159073
17.55925359,-1.87956214,-12.05204964,0.5126622319
17.56925359,-0.6346961856,-12.57966709,1.601396561
17.57925359,1.455434322,-12.34995556,1.898106575
17.58925359,4.086941242,-12.20638657,3.029313564
17.59925359,6.160920143,-10.46082211,2.71824646
17.60925359,6.775875568,-9.324232101,1.707877159
17.61925359,5.647659779,-9.601201057,-0.836291492
17.62925359,4.183252335,-9.495916367,-1.765304923
17.63925359,2.843869686,-9.300901413,-1.802991867
17.64925359,1.21854496,-9.101100922,-1.75034976
17.65925359,1.587637782,-8.426922798,-0.8584251404
17.66925359,1.42372942,-8.851649284,-1.829312921
17.67925359,1.347757339,-8.778668404,-1.287936807
17.68925359,0.5222335458,-8.532207489,-0.2410768867
17.69925359,-0.1938186288,-8.425726891,0.1878365725
17.70925359,-0.9290133715,-8.225327492,0.9762716293
17.71925359,-1.345364571,-7.762316704,1.116850019
17.72925359,-1.761117458,-7.490133286,1.159920812
17.73925359,-2.034497499,-7.134799004,0.9170492887
17.74925359,-2.240878344,-6.969694138,0.5389832854
17.75925359,-2.36111784,-6.795018196,0.1034895778
17.76925359,-2.38624239,-6.828517437,-0.6532405615
17.77925359,-2.161915302,-6.735197544,-0.9774680734
17.78925359,-1.847259045,-6.766902447,-1.253839016
17.79925359,-1.45483613,-6.808776855,-1.353141189
17.80925359,-1.15393877,-6.84646368,-1.376471281
17.81925359,-1.177866936,-7.222734928,-1.704287887
17.82925359,-0.9337990284,-7.749754429,-1.596610904
17.83925359,-0.1932204217,-8.688339233,-2.117049932
17.84925359,0.4666004181,-9.522835732,-2.52682066
17.85925359,1.116850019,-11.18584728,-2.82233429
17.86925359,1.66600275,-12.13639641,-3.826721668
17.87925359,2.219941139,-12.66999626,-4.125226021
17.88925359,3.143570662,-12.79980659,-3.949951887
17.89925359,4.876572609,-12.53360462,-2.677568436
17.90925359,5.867201328,-11.87378407,-1.673181176
17.91925359,5.569892883,-11.38325596,-2.082952023
17.92925359,4.804189682,-10.96092224,-2.389831543
17.93925359,4.651647091,-10.06361389,-2.025524378
17.94925359,4.149752617,-9.25783062,-1.582253933
17.95925359,3.337389469,-8.986844063,-1.406381488
17.96925359,2.577069998,-8.801400185,-1.35074842
17.97925359,1.739582062,-8.972486496,-1.594218135
17.98925359,0.7597211599,-9.824331284,-1.746760488
17.99925359,0.1262213886,-12.10289669,-0.9738788009
18.00925359,-0.5599204898,-13.90588856,0.195015043
18.01925359,-1.543370605,-14.5890398,0.6747759581
18.02925359,-2.499901533,-14.34138298,0.7016952634
18.03925359,-2.964108944,-13.78146172,0.6221339107
18.04925359,-2.865405083,-12.06999588,0.2404786795
18.05925359,-2.54656148,-10.54397297,-0.3565305769
18.06925359,-2.557329178,-9.755537987,-0.9451649189
18.07925359,-1.922633052,-9.415757179,-1.596610904
18.08925359,-0.9672985673,-9.502496719,-2.120639086
18.09925359,-0.01615155302,-9.537791252,-2.542972326
18.10925359,0.5282155871,-9.321240425,-2.659622431
18.11925359,0.8584251404,-8.876773834,-2.502294302
18.12925359,0.8524430394,-8.428717613,-2.944368362
18.13925359,0.4695914388,-7.968697548,-3.134597778
18.14925359,0.1579262912,-7.82333374,-3.460619688
18.15925359,-0.3050848842,-8.021938324,-3.070589542
18.16925359,-1.240080357,-8.703892708,-2.130808592
18.17925359,-1.898106575,-9.55753231,-1.137787223
18.18925359,-1.919641972,-10.50209904,-0.08554340899
18.19925359,-1.310668588,-10.51226807,0.8213363886
18.20925359,0.004785645287,-9.939785004,1.284945726
18.21925359,1.202393413,-9.151350021,3.138186932
18.22925359,1.884945989,-8.455636978,5.252245903
18.23925359,1.647458434,-8.181060791,6.407381058
18.24925359,1.121037364,-8.140382767,5.950351715
18.25925359,-0.05443671346,-8.213961601,3.800400496
18.26925359,-0.7076773047,-8.3641119,1.790429592
18.27925359,-0.8117650747,-8.041080475,-0.1280160099
18.28925359,-0.956530869,-7.615158081,-0.9158528447
18.29925359,-0.9290133715,-7.673782349,-1.452443361
18.30925359,-0.8231309652,-8.248059273,-1.484746456
18.31925359,-0.8703892231,-8.967103004,-1.254437327
18.32925359,-0.9224331379,-9.441479683,-1.181456208
18.33925359,-1.031904817,-10.00379372,-0.8452646136
18.34925359,-1.074377418,-10.23111153,-0.4492524564
18.35925359,-1.046261668,-9.86022377,-0.8781659007
18.36925359,-1.003789067,-9.443274498,-0.9134600163
18.37925359,-0.970289588,-9.672387123,-1.005583763
18.38925359,-1.055832982,-10.19462109,-0.932602644
18.39925359,-1.146162033,-10.1210413,-0.4731806815
18.40925359,-1.068993568,-9.716654778,-0.1393819153
18.41925359,-0.9774680734,-9.355338097,0.2697907388
18.42925359,-0.9960124493,-9.114859581,0.865005374
18.43925359,-1.149153113,-9.205188751,0.7776673436
18.44925359,-1.364507079,-9.195018768,0.6095715761
18.45925359,-1.527219057,-9.185447693,0.6233302951
18.46925359,-1.569691658,-9.401400566,0.6981059909
18.47925359,-1.354935765,-9.987043381,0.2500499785
18.48925359,-0.8913264275,-10.43988514,0.05742774159
18.49925359,-0.4366901219,-10.86161995,0.1764706671
18.50925359,-0.06340979785,-11.57109165,0.3840480447
18.51925359,0.4773681164,-12.07777214,0.3828516304
18.52925359,1.165304661,-11.84088326,0.08075776696
18.53925359,1.843669891,-11.1445713,-0.214157626
18.54925359,2.187039852,-10.69292641,-0.4061816335
18.55925359,2.301297188,-10.54696369,-0.7974081635
18.56925359,2.008774519,-10.38126087,-1.324427366
18.57925359,1.615155339,-10.34776115,-2.163709879
18.58925359,1.27477622,-10.63190937,-2.61714983
18.59925359,1.012163997,-11.249856,-2.574079037
18.60925359,0.8937192559,-12.7190485,-2.60279274
18.61925359,0.745962441,-12.71605778,-2.340180635
18.62925359,0.3020938635,-12.72024536,-1.709671736
18.63925359,-0.4797609448,-12.91705513,-0.2679961324
18.64925359,-1.128215909,-12.66461182,0.6317051649
18.65925359,-0.7357929349,-11.55314636,1.286740422
18.66925359,0.2321037948,-11.20140076,2.53280282
18.67925359,1.225125194,-9.503094673,2.011167526
18.68925359,0.6532405615,-9.165108681,0.708275497
18.69925359,-0.8392825127,-9.31166935,-2.784049034
18.70925359,-2.328814745,-9.500701904,-4.136591911
18.71925359,-3.919443607,-10.36391354,-3.320041418
18.72925359,-5.038087845,-11.89292717,-0.7722834945
18.73925359,-6.628716946,-13.42493153,-0.1944168359
18.74925359,-6.737590313,-13.67199039,0.3116651475
18.75925359,-5.164309502,-12.33739376,0.5461617708
18.76925359,-3.27577424,-11.50947666,0.8267202377
18.77925359,-1.362712502,-10.9489584,1.005583763
18.78925359,0.7794619799,-10.22273636,1.468594909
18.79925359,3.404388428,-8.648259163,1.790429592
18.80925359,4.980660439,-8.821140289,0.6077769399
18.81925359,4.15633297,-9.881160736,-0.6664010882
18.82925359,3.540779352,-9.926026344,-2.733201742
18.83925359,2.306680918,-10.05763149,-3.2895329
18.84925359,0.7573283911,-9.9643116,-3.112463951
18.85925359,0.313459754,-9.422935486,-2.455035925
18.86925359,-0.4695914388,-8.777471542,-1.725823283
18.87925359,-1.249053478,-8.787042618,-1.848455548
18.88925359,-1.731207132,-8.193024635,-1.205384374
18.89925359,-1.956132531,-7.907082558,-1.036690354
18.90925359,-2.419143677,-7.653443336,-0.394815743
18.91925359,-2.786442041,-7.254439831,0.1088734269
18.92925359,-2.891726255,-6.725028038,0.3272185028
18.93925359,-2.824727058,-6.448058605,0.4253242314
18.94925359,-2.733799934,-6.102295876,0.2410768867
18.95925359,-2.596212626,-5.878567219,-0.2745763958
18.96925359,-2.410768747,-5.851049423,-0.7668996453
18.97925359,-1.956730723,-5.91266489,-0.8033902049
18.98925359,-1.554736495,-5.92642355,-0.8979067206
18.99925359,-1.216152072,-6.144768715,-1.171286702
19.00925359,-0.9631111026,-6.605386734,-1.642074585
19.01925359,-0.7818548083,-7.396812916,-2.077568293
19.02925359,-0.195015043,-8.552546501,-3.165106058
19.03925359,0.3302095234,-9.327222824,-4.010370731
19.04925359,1.085145116,-10.18026352,-4.444069862
19.05925359,1.779063582,-11.16132164,-4.323232174
19.06925359,3.415754318,-12.24885941,-4.012165546
19.07925359,5.147559643,-12.85185051,-3.726821184
19.08925359,6.147759438,-13.12702465,-3.241078377
19.09925359,6.151947021,-12.80937767,-3.535993576
19.10925359,5.318646431,-11.76431274,-3.896711588
19.11925359,4.265804768,-10.46740246,-4.05523634
19.12925359,3.438486099,-9.731011391,-4.034897327
19.13925359,2.362314224,-9.12084198,-3.766901016
19.14925359,1.133599758,-8.840881348,-3.611367464
19.15925359,0.2590230405,-8.722436905,-3.513859987
19.16925359,-0.2662015259,-9.829715729,-3.288336515
19.17925359,-1.19581306,-12.04307652,-2.280958176
19.18925359,-2.264208317,-13.54995632,-1.030708313
19.19925359,-3.367299557,-14.19542027,-0.5072783828
19.20925359,-4.069592953,-14.85883045,-0.1645065546
19.21925359,-4.264608383,-14.59980774,0.4875376225
19.22925359,-4.134199142,-13.54337597,1.462014675
19.23925359,-3.708875179,-12.12742329,1.664208174
19.24925359,-3.320041418,-10.40159988,0.4456632137
19.25925359,-3.375076294,-9.097511292,-0.628115952
19.26925359,-3.248854876,-8.484351158,-2.271386862
19.27925359,-2.333600283,-8.440083504,-3.838087559
19.28925359,-1.16769743,-8.163712502,-4.234099865
19.29925359,-0.3726821244,-7.941778183,-3.650250912
19.30925359,0.546759963,-7.884350777,-2.827120066
19.31925359,1.73898387,-7.665407181,-1.724626899
19.32925359,3.224328518,-7.738388538,0.2099701911
19.33925359,4.543372154,-7.93818903,2.488535643
19.34925359,4.521238327,-8.743373871,3.416950703
19.35925359,3.187239647,-10.30708313,2.980858803
19.36925359,2.623131752,-10.49850941,2.92941308
19.37925359,1.37048912,-10.54277611,2.996412039
19.38925359,0.337387979,-10.43809032,2.954537868
19.39925359,-0.7489534616,-10.0582304,2.536391973
19.40925359,-1.586441398,-9.672985077,2.018345833
19.41925359,-2.109273195,-9.533603668,1.107278705
19.42925359,-2.215753794,-9.499505997,0.2356930375
19.43925359,-2.001596212,-9.285347939,-0.2793620527
19.44925359,-1.701895118,-9.022735596,-0.932602644
19.45925359,-1.444068432,-8.720044136,-1.087537885
19.46925359,-1.281356573,-8.95513916,-1.002592683
19.47925359,-0.822532773,-9.049057007,-1.178465128
19.48925359,-0.009571290575,-9.09571743,-1.280758262
19.49925359,0.6119644046,-9.424132347,-1.433898926
19.50925359,0.8554341197,-9.668199539,-1.472782373
19.51925359,0.6305087805,-9.771091461,-1.886142492
19.52925359,0.1651047617,-9.79501915,-2.668595552
19.53925359,-0.1513460279,-9.878170013,-3.177668571
19.54925359,-0.2895315289,-9.976275444,-2.872583628
19.55925359,-0.3026920557,-10.07557774,-2.236092806
19.56925359,-0.2494517565,-10.04028416,-1.785643935
19.57925359,-0.2817548811,-9.880562782,-1.325025558
19.58925359,-0.2338984162,-9.681360245,-0.9936196208
19.59925359,-0.209371984,-9.577870369,-0.7100701332
19.60925359,-0.199800685,-9.488140106,-0.5611169338
19.61925359,-0.1136590764,-9.488140106,-0.5078766346
19.62925359,0.06819544733,-9.454640388,-0.4929214716
19.63925359,0.3074777126,-9.478569031,-0.4534398913
19.64925359,0.4893322289,-9.561120987,-0.3050848842
19.65925359,0.6574280262,-9.772287369,-0.1381855011
19.66925359,0.6622136831,-9.907482147,0.0382851623
19.67925359,0.4235295951,-9.947562218,0.3146561682
19.68925359,0.1657029688,-9.895518303,0.4001995921
19.69925359,-0.08793623,-9.867402077,0.4522434771
19.70925359,-0.3505485058,-9.949954987,0.5700899959
19.71925359,-0.4510470629,-10.01755238,0.6221339107
19.72925359,-0.5030909777,-10.08036327,0.6981059909
19.73925359,-0.5324030519,-10.24606609,0.4576273263
19.74925359,-0.513858676,-10.48176003,-0.151944235
19.75925359,-0.471386075,-10.70847988,-0.5557330847
19.76925359,-0.304486692,-10.98006535,-0.7483552694
19.77925359,0.01136590727,-11.29113197,-0.7441678643
19.78925359,0.1645065546,-11.68834019,-0.7076773047
19.79925359,0.2554338276,-12.53898907,-0.890130043
19.80925359,0.2554338276,-13.1264267,-1.118644595
19.81925359,0.2362912297,-13.34058475,-1.273579836
19.82925359,0.2356930375,-13.33998585,-1.407577872
19.83925359,0.4414757788,-12.70289707,-1.417149186
19.84925359,0.8428717852,-12.0155592,-1.095314622
19.85925359,1.250249863,-11.41496086,-0.6873382926
19.86925359,1.698904037,-10.59601688,-0.6472585201
19.87925359,2.439482689,-10.21914768,-1.163509965
19.88925359,2.408974171,-9.707083702,-1.859821439
19.89925359,0.05623133108,-10.04148006,-2.316252232
19.90925359,-0.9487541914,-9.734002113,-2.590828657
19.91925359,-0.4779663086,-9.097511292,-1.033699393
19.92925359,-0.6119644046,-10.07019424,1.420738459
19.93925359,-0.6538388133,-11.24925709,1.686341763
19.94925359,-0.5802595019,-11.16849995,0.2075773627
19.95925359,-0.0783649385,-11.2570343,-0.02572284266
19.96925359,0.4157529473,-11.07039356,0.8009973764
19.97925359,0.6903293133,-11.05424213,2.042274237
19.98925359,2.887538671,-10.54516983,3.557528973
19.99925359,3.412165165,-9.963713646,3.26141715
20.00925359,3.896113396,-9.435498238,3.817150354
20.01925359,3.939184189,-8.537590981,4.071985722
20.02925359,3.699303865,-7.549953461,3.742374659
20.03925359,2.268395901,-7.805387497,3.088535786
20.04925359,0.5252245665,-8.413763046,1.473978758
20.05925359,-0.2847459018,-8.80738163,0.06041877344
20.06925359,0.06340979785,-9.359525681,-0.4061816335
20.07925359,0.6664010882,-9.827920914,-0.4737788737
20.08925359,1.135394335,-10.12463093,-0.3397808075
20.09925359,1.427318692,-10.33160973,-0.1483550072
20.10925359,1.045065284,-10.28614616,0.204586342
20.11925359,0.6723831892,-9.393025398,0.3816552162
20.12925359,0.1369891018,-9.26919651,0.471386075
20.13925359,-0.3888336718,-9.56770134,0.6203392744
20.14925359,-0.6801598072,-10.03131104,0.5395814776
20.15925359,-0.8817551732,-9.867402077,0.2913261652
20.16925359,-0.7956135273,-9.800403595,0.2823530734
20.17925359,-0.8626125455,-9.924830437,0.3337987661
20.18925359,-0.670588553,-9.74477005,0.6137589812
20.19925359,-0.70348984,-9.550951958,0.9882357717
20.20925359,-1.062413216,-9.489336014,1.087537885
20.21925359,-1.560120344,-9.316454887,0.8668000102
20.22925359,-1.861017823,-9.393025398,0.8937192559
20.23925359,-1.875374794,-9.636494637,0.7866404653
20.24925359,-1.445863128,-10.22273636,0.4205385745
20.25925359,-0.590429008,-10.6737833,-0.0143569354
20.26925359,-0.1597209126,-11.12183952,-0.2171486616
20.27925359,0.1932204217,-11.23430252,-0.6137589812
20.28925359,0.4271188378,-11.06022453,-0.879960537
20.29925359,0.3738785386,-10.37408257,-1.158126116
20.30925359,0.3056831062,-9.797411919,-1.533201098
20.31925359,0.4677968323,-9.259027481,-1.840080619
20.32925359,0.7543373108,-8.822935104,-1.898704767
20.33925359,1.156331539,-8.553144455,-1.363908887
20.34925359,1.238883972,-8.648259163,-0.679561615
20.35925359,1.033699393,-8.822337151,-0.442073971
20.36925359,0.6753742099,-9.086145401,-0.4594219327
20.37925359,0.3074777126,-9.283554077,-0.2512463629
20.38925359,0.04067798331,-9.425328255,0.1920240223
20.39925359,-0.2165504545,-9.457033157,0.5497509837
20.40925359,-0.4558327198,-9.346963882,0.6071787477
20.41925359,-0.5659025311,-9.175278664,0.6556333899
20.42925359,-0.6137589812,-9.150752068,0.5359922647
20.43925359,-0.8626125455,-9.427721024,0.3990031779
20.44925359,-1.24965167,-10.15513897,0.3978067636
20.45925359,-1.760519266,-11.77388382,0.5150550604
20.46925359,-2.284547329,-13.5284214,0.8560323119
20.47925359,-2.761915445,-14.66919899,1.052842021
20.48925359,-3.183650494,-14.78166199,0.6723831892
20.49925359,-3.457628727,-13.92503166,-0.151944235
20.50925359,-3.335594654,-12.27458191,-0.7920243144
20.51925359,-2.882753134,-10.48654556,-1.180858016
20.52925359,-2.505883455,-9.555737495,-1.465603828
20.53925359,-2.18105793,-8.923434258,-1.575673699
20.54925359,-1.812563181,-8.536395073,-1.360917926
20.55925359,-1.258026481,-8.102695465,-1.054038405
20.56925359,-0.5258227587,-7.677969456,-0.799800992
20.57925359,0.02871387079,-7.36151886,-0.7525427341
20.58925359,1.01874423,-7.022336483,-0.5551348329
20.59925359,1.904088616,-6.823133945,-0.1292124242
20.60925359,1.803590059,-7.377670288,-0.233300209
20.61925359,1.569093466,-8.365905762,-0.643071115
20.62925359,1.783849239,-9.462417603,-1.271785259
20.63925359,1.861616015,-11.03151035,-0.7016952634
20.64925359,2.27078867,-12.64188004,0.4821537733
20.65925359,1.895115495,-13.51346588,1.32263267
20.66925359,0.9972088337,-13.27837086,1.875972986
20.67925359,0.02572284266,-12.16810131,1.754537225
20.68925359,-0.6640082598,-10.70309544,1.584048629
20.69925359,-0.8793623447,-9.493523598,1.691725612
20.70925359,-1.099501967,-8.97667408,1.737189293
20.71925359,-1.400997639,-8.638090134,1.819741607
20.72925359,-1.382453322,-8.483154297,1.581057549
20.73925359,-1.277169108,-8.424530029,1.39022994
20.74925359,-1.005583763,-8.512466431,0.9936196208
20.75925359,-0.8009973764,-8.557332039,0.4863412082
20.76925359,-0.9493523836,-8.836693764,0.01495514158
20.77925359,-1.136590719,-8.88634491,-0.4600201547
20.78925359,-1.386042476,-9.104091644,-0.865005374
20.79925359,-1.371685624,-9.127422333,-0.9894321561
20.80925359,-1.24666059,-9.498908043,-0.4695914388
20.81925359,-1.283749342,-9.69811058,-0.05443671346
20.82925359,-1.938784599,-9.642477036,0.1926222295
20.83925359,-2.311466694,-9.672387123,0.3248256743
20.84925359,-2.200798512,-9.884152412,0.5204389095
20.85925359,-2.057827473,-9.984052658,0.4151547253
20.86925359,-1.832902193,-10.0019989,0.2817548811
20.87925359,-1.512862086,-9.924830437,0.2452643216
20.88925359,-1.211366415,-9.700503349,0.3290131092
20.89925359,-0.7956135273,-9.513264656,0.3128615618
20.90925359,-0.4319044948,-9.260822296,0.5264210105
20.91925359,-0.3266202807,-9.01316452,0.7968099117
20.92925359,-0.4552344978,-8.704490662,1.123430252
20.93925359,-0.7896314859,-8.255836487,1.297508121
20.94925359,-1.210768223,-8.422736168,1.118046403
20.95925359,-1.335793257,-8.769096375,0.6412764788
20.96925359,-1.335793257,-9.289535522,0.4271188378
20.97925359,-1.292722464,-10.13180923,0.4600201547
20.98925359,-1.053440213,-10.91067314,0.2691925466
20.99925359,-0.72323066,-11.36830044,0.09032905847
21.00925359,-0.5276173949,-11.56331539,-0.09212367237
21.01925359,-0.4366901219,-11.53400326,-0.1728814393
21.02925359,-0.3272185028,-11.39880848,-0.3296113312
21.03925359,-0.1938186288,-11.15832996,-0.5527420044
21.04925359,0.02093719877,-10.93639565,-0.7944171429
21.05925359,0.1489532143,-10.71446133,-1.089332461
21.06925359,0.3014956415,-10.52602673,-1.317248821
21.07925359,0.650847733,-10.31127071,-1.209571838
21.08925359,1.086939692,-10.25145054,-0.7046862841
21.09925359,1.408774376,-10.39980507,0.01375873014
21.10925359,1.524227977,-10.64746284,0.6735795736
21.11925359,1.597209096,-11.2438736,1.120439172
21.12925359,1.463809252,-12.0095768,1.124626637
21.13925359,1.171884894,-12.64905834,0.7124629617
21.14925359,0.9750752449,-12.88056469,0.2500499785
21.15925359,0.6963114142,-12.80519009,-0.3918247223
21.16925359,0.4277170599,-12.62871933,-1.009771109
21.17925359,0.3595215976,-12.23809147,-1.481157184
21.18925359,0.4929214716,-11.82532978,-1.717448473
21.19925359,0.6502495408,-11.15474129,-1.755733609
21.20925359,0.7890332937,-10.53918743,-1.450050473
21.21925359,1.071386337,-9.936794281,-1.358525038
21.22925359,1.524826288,-9.356534958,-1.472782373
21.23925359,1.654038668,-8.834300995,-1.521835208
21.24925359,0.836291492,-8.625527382,-1.37048912
21.25925359,-0.104685992,-8.733802795,-0.9966106415
21.26925359,-0.7058826685,-9.150154114,-0.3164508045
21.27925359,-0.8673982024,-9.170493126,0.6113662124
21.28925359,-1.200598717,-9.77348423,1.344168067
21.29925359,-0.8733802438,-11.12243748,2.059622049
21.30925359,-0.6083751321,-12.0035944,2.849851847
21.31925359,0.3469592929,-11.96052361,2.293520451
21.32925359,0.993021369,-12.0915308,2.654238462
21.33925359,0.1417747438,-12.4558382,2.562713146
21.34925359,-0.5222335458,-11.47956657,3.284747362
21.35925359,0.002392822644,-9.792626381,2.962314367
21.36925359,0.5611169338,-8.862417221,2.764308453
21.37925359,0.6065805554,-8.690134048,1.257428288
21.38925359,1.278365493,-8.299505234,0.1130608693
21.39925359,1.942971945,-9.163313866,-0.1339980662
21.40925359,1.808375716,-10.22512913,-1.060618639
21.41925359,1.343569875,-11.10628605,-1.73360002
21.42925359,0.5880361795,-11.35513973,-1.838884234
21.43925359,-0.55154562,-10.28076267,-2.37248373
21.44925359,-1.042074203,-9.79501915,-1.336989641
21.45925359,-1.615155339,-9.339186668,-0.8530412912
21.46925359,-1.557129383,-8.715856552,-0.2069791555
21.47925359,-1.485344648,-8.440083504,0.02991028316
21.48925359,-1.485344648,-8.234899521,0.1172483116
21.49925359,-1.661815286,-7.986643791,0.2566302419
21.50925359,-1.920838356,-7.512266636,0.1537388563
21.51925359,-2.02612257,-7.152146816,-0.08374879509
21.52925359,-1.940579176,-7.070192814,-0.1932204217
21.53925359,-2.128415823,-6.854838848,-0.9302098155
21.54925359,-2.032702923,-6.663413048,-0.9140582681
21.55925359,-1.813161373,-6.70588541,-0.9948160052
21.56925359,-1.440479279,-6.808776855,-1.314856052
21.57925359,-1.020538807,-7.049853802,-1.716850281
21.58925359,-0.6903293133,-7.293921471,-1.707877159
21.59925359,-0.2171486616,-7.755736351,-2.010569334
21.60925359,0.2081755698,-8.595617294,-2.388036966
21.61925359,0.8105686903,-9.358329773,-2.739781857
21.62925359,1.274178028,-9.864411354,-2.913859844
21.63925359,1.771885157,-10.61994553,-2.897708178
21.64925359,2.413161755,-11.51605701,-2.685345173
21.65925359,3.116651535,-12.2482605,-2.538784742
21.66925359,3.676572084,-12.66461182,-2.548954248
21.67925359,3.929612875,-12.71486092,-2.821137905
21.68925359,4.009772778,-12.40080357,-3.273381472
21.69925359,3.823132277,-11.79302597,-3.303889751
21.70925359,3.560520172,-11.11167049,-2.879163742
21.71925359,3.135195971,-10.45842934,-2.527418852
21.72925359,2.456232548,-9.747760773,-2.285743713
21.73925359,1.710269928,-9.413962364,-2.128415823
21.74925359,0.9409775138,-9.932008743,-2.106282234
21.75925359,0.1525424421,-11.12901783,-2.093121529
21.76925359,-0.4390829504,-11.97966671,-1.645663738
21.77925359,-1.207777262,-12.9320097,-0.9744769931
21.78925359,-2.431107759,-13.57567883,-0.8063812256
21.79925359,-3.415754318,-13.31426334,-0.5832505226
21.80925359,-3.808177233,-12.55992603,-0.3888336718
21.81925359,-3.755535126,-11.44008541,-0.352343142
21.82925359,-3.225524902,-10.33340454,-0.4869394004
21.83925359,-2.404188633,-9.321838379,-0.6305087805
21.84925359,-1.768295884,-8.575876236,-0.4797609448
21.85925359,-1.223330617,-7.909475327,-0.5838487148
21.86925359,-0.822532773,-7.549355507,-0.7136593461
21.87925359,-0.4636093974,-7.109076023,-0.6185446382
21.88925359,-0.06699903309,-6.692724705,-0.590429008
21.89925359,0.2715853751,-6.675376892,-1.067797065
21.90925359,0.5347958803,-6.527021885,-0.970289588
21.91925359,0.7357929349,-6.948158741,-0.9768698215
21.92925359,0.670588553,-7.896314621,-0.1214357466
21.93925359,0.128614217,-9.230911255,1.194616675
21.94925359,-0.6017948985,-10.89452171,1.607378602
21.95925359,-0.9786644578,-12.25484085,1.707278967
21.96925359,-0.9397810698,-12.83390427,1.713261008
21.97925359,-0.7680960894,-12.31226921,1.755733609
21.98925359,-1.185045362,-11.03928757,1.709671736
21.99925359,-1.382453322,-9.643074989,1.094716311
22.00925359,-1.010967612,-8.91146946,0.5072783828
22.01925359,-0.5383850932,-8.754739761,0.01674975827
22.02925359,-0.4671986103,-8.103293419,-0.05024927482
22.03925359,-0.4342973232,-7.662416458,-0.2201396823
22.04925359,-0.5533402562,-7.452445984,-0.08494520187
22.05925359,-0.6059823632,-7.826922894,0.06101697683
22.06925359,-0.4671986103,-8.01775074,0.01734796353
22.07925359,-0.3996013701,-8.10449028,0.1172483116
22.08925359,-0.6388836503,-8.539983749,0.0466600433
22.09925359,-0.8829515576,-9.141778946,-0.1878365725
22.10925359,-1.19880414,-9.628718376,-0.3792623878
22.11925359,-1.480558991,-9.891928673,-0.4295116663
22.12925359,-1.600200176,-9.95414257,-0.4833501875
22.13925359,-1.29451704,-10.09591675,-0.7178468108
22.14925359,-0.9451649189,-10.18624592,-0.7357929349
22.15925359,-0.6484549642,-10.12941647,-0.6005984545
22.16925359,-0.342173636,-10.20658493,-0.4606183469
22.17925359,-0.1322034448,-10.0767746,-0.5647061467
22.18925359,-0.06580262631,-9.812965393,-0.5868397355
22.19925359,-0.2231307179,-9.479764938,-0.3218346536
22.20925359,-0.337387979,-9.519845009,-0.0783649385
22.21925359,-0.3846462369,-9.927821159,0.0580259487
22.22925359,-0.2889333367,-10.33340454,-0.04007977992
22.23925359,-0.1890329868,-10.49970531,-0.2560320199
22.24925359,-0.1507478207,-10.46142101,-0.2177468538
22.25925359,-0.08853443712,-10.15035343,-0.1962114573
22.26925359,0.01674975827,-10.02233791,-0.05144568533
22.27925359,0.1555334777,-10.23769188,0.0197407864
22.28925359,0.342173636,-10.59721375,0.1088734269
22.29925359,0.6771687865,-10.95135117,0.09391828626
22.30925359,1.107876897,-11.0943222,0.1136590764
22.31925359,1.462014675,-11.09492016,0.2201396823
22.32925359,1.600200176,-11.01775169,0.2021935135
22.33925359,1.571486235,-10.95075321,0.1788634956
22.34925359,1.456630826,-10.94058323,0.05383851007
22.35925359,1.255633712,-11.09252739,-0.1441675574
22.36925359,0.9589236975,-11.55613708,-0.3493520916
22.37925359,0.9349954724,-12.03888893,-0.3768695593
22.38925359,0.9493523836,-12.36909866,-0.4265206456
22.39925359,0.7106683254,-12.49831104,-0.4857429862
22.40925359,0.5048855543,-12.16810131,-0.4558327198
22.41925359,0.2949153781,-11.77268696,-0.1812563092
22.42925359,0.342173636,-11.36112213,-0.2165504545
22.43925359,0.2404786795,-10.66839981,-0.7728816867
22.44925359,0.3361915946,-9.754940033,-0.6179464459
22.45925359,-0.4875376225,-9.020342827,-1.138385415
22.46925359,-1.268794179,-8.315656662,-2.157129526
22.47925359,-2.155933142,-8.32762146,-3.415156126
22.48925359,-3.575475216,-8.617152214,-3.226123095
22.49925359,-5.33240509,-9.723833084,-1.798804402
22.50925359,-6.955935478,-11.21276665,-1.177268744
22.51925359,-8.430512428,-12.53539944,0.4223332107
22.52925359,-8.071588516,-13.15573883,0.2183450609
22.53925359,-5.805585861,-12.88654613,0.3296113312
22.54925359,-3.126821041,-12.10409355,1.067797065
22.55925359,-0.9499505758,-10.79162979,1.946561217
22.56925359,1.952543259,-10.05404282,2.221137524
22.57925359,6.437291145,-9.332008362,2.127817631
22.58925359,5.846263885,-9.251849174,0.6993024349
22.59925359,4.663611412,-9.422337532,-0.4510470629
22.60925359,2.660220623,-9.956535339,-3.306282759
22.61925359,1.311864972,-9.747162819,-3.30089879
22.62925359,0.6891329288,-9.102895737,-3.844667673
22.63925359,0.5048855543,-9.111868858,-2.45683074
22.64925359,-0.07776673883,-8.923434258,-2.05124712
22.65925359,-0.9667003751,-8.982656479,-1.820339799
22.66925359,-1.488335729,-8.667402267,-1.872981906
22.67925359,-1.969891191,-8.31027317,-0.8907282352
22.68925359,-2.309073925,-8.200801849,-0.7668996453
22.69925359,-2.299502611,-7.839485168,-0.4390829504
22.70925359,-2.136790514,-7.394420147,-0.4450650215
22.71925359,-2.022533417,-6.891329288,-0.4414757788
22.72925359,-2.036890268,-6.513861656,-0.3481557071
22.73925359,-2.16131711,-6.184250355,-0.3176472187
22.74925359,-1.540379524,-5.893522263,-0.7591229677
22.75925359,-1.277767301,-5.916851997,-0.8823533654
22.76925359,-0.7423732281,-5.858228207,-0.9517452121
22.77925359,-0.4169493318,-5.882156372,-0.9361918569
22.78925359,-0.3547359705,-6.039484501,-1.013958573
22.79925359,-0.2644068897,-6.319444656,-1.340578914
22.80925359,0.7202396393,-6.876972198,-1.584646821
22.81925359,1.202991605,-7.601997375,-1.980060697
22.82925359,1.804188251,-8.523832321,-2.869592667
22.83925359,2.133799553,-9.839884758,-3.619144201
22.84925359,2.650051117,-11.26780224,-4.057030678
22.85925359,3.620938778,-12.83031464,-4.278964996
22.86925359,4.745565414,-14.09312725,-4.272983074
22.87925359,6.257231236,-14.94915962,-4.133601189
22.88925359,6.792625427,-14.47059536,-4.080360889
22.89925359,6.351149559,-12.58445263,-4.252045631
22.90925359,5.394618511,-11.28814125,-4.219144344
22.91925359,4.150949001,-10.15155029,-3.99601388
22.92925359,2.611765862,-9.714262009,-3.769293785
22.93925359,1.010967612,-10.68933678,-3.432504177
22.94925359,0.02213360928,-12.25244808,-3.05324173
22.95925359,-1.367498159,-13.70309734,-2.459821701
22.96925359,-2.790031195,-14.71526146,-1.485344648
22.97925359,-4.03788805,-15.0089798,-1.338784218
22.98925359,-4.324428558,-13.73420334,-0.8769695163
22.99925359,-4.280759811,-11.7403841,0.1082752272
23.00925359,-4.084548473,-9.265008926,0.7950153351
23.01925359,-3.888935089,-7.801798344,0.9343972206
23.02925359,-3.861417532,-7.138986588,0.6466603279
23.03925359,-3.723830223,-6.757929325,0.1992024779
23.04925359,-3.19382,-6.552744865,-0.4486542344
23.05925359,-2.516052961,-6.624529362,-1.073779106
23.06925359,-1.694118381,-6.894320011,-1.47457695
23.07925359,-0.8572286963,-7.334599495,-1.339980721
23.08925359,-0.1728814393,-7.789834023,-1.201196909
23.09925359,0.6364908218,-8.405387878,-0.6514459848
23.10925359,1.212562919,-9.110671997,0.5096712112
23.11925359,1.319641709,-10.19761181,1.379462242
23.12925359,0.7854440212,-11.1003046,1.783849239
23.13925359,0.1208375469,-11.67996597,1.729412556
23.14925359,-0.7680960894,-12.02692509,1.982453585
23.15925359,-1.15094769,-11.82413292,1.675574064
23.16925359,-1.578066587,-10.90708351,1.186840057
23.17925359,-1.846660852,-10.09232807,0.9086744189
23.18925359,-1.99501586,-9.312865257,1.037288666
23.19925359,-1.999801517,-8.537590981,1.04685986
23.20925359,-1.718046665,-7.805387497,1.057627559
23.21925359,-1.498505235,-7.646862984,1.006780148
23.22925359,-1.216152072,-8.239685059,0.9607182741
23.23925359,-0.7190431952,-8.840881348,0.7339983582
23.24925359,-0.3505485058,-9.424132347,0.6598208547
23.25925359,-0.2500499785,-9.509077072,0.5353940725
23.26925359,-0.2554338276,-9.531808853,0.3050848842
23.27925359,0.02093719877,-9.35174942,-0.09032905847
23.28925359,0.3314059377,-9.245268822,-0.3086741269
23.29925359,0.4079762697,-9.353543282,-0.5246263742
23.30925359,0.1591227055,-9.387042999,-0.5593222976
23.31925359,-0.5048855543,-9.738189697,-0.3720839322
23.32925359,-0.8398807645,-9.858428955,-0.3122633696
23.33925359,-0.8733802438,-9.84885788,-0.3218346536
23.34925359,-0.8207381964,-9.839286804,-0.3403790295
23.35925359,-0.9164510965,-10.02592659,-0.35174492
23.36925359,-1.026520967,-10.17368412,-0.4438686073
23.37925359,-1.107876897,-10.05404282,-0.4821537733
23.38925359,-1.117448211,-9.971489906,-0.6634100676
23.39925359,-1.151545882,-9.899106979,-0.7926225066
23.40925359,-1.089332461,-9.763913155,-0.9541380405
23.41925359,-0.860219717,-9.538389206,-0.980459094
23.42925359,-0.5491527915,-9.548559189,-0.8835497499
23.43925359,-0.171086818,-9.80638504,-0.8883354068
23.44925359,0.2207378894,-10.2406826,-1.014556766
23.45925359,0.4079762697,-10.46261692,-0.718445003
23.46925359,0.5330012441,-10.36391354,-0.4295116663
23.47925359,0.643071115,-10.15932655,-0.2841476798
23.48925359,0.7668996453,-9.867402077,-0.2386840582
23.49925359,0.8243274093,-9.728618622,-0.190229401
23.50925359,0.9637092948,-9.739386559,-0.02691925503
23.51925359,1.241276741,-9.845269203,0.1651047617
23.52925359,1.514058471,-9.893723488,0.2907279432
23.53925359,1.73898387,-10.04267693,0.3529413342
23.54925359,1.700698733,-10.32562828,0.4893322289
23.55925359,1.376471281,-10.9489584,0.5850451589
23.56925359,1.118046403,-11.67159081,0.5599204898
23.57925359,0.8267202377,-12.46481133,0.3242274821
23.58925359,0.2913261652,-13.08754349,0.380458802
23.59925359,-0.3541377485,-13.33041477,0.1130608693
23.60925359,-0.747158885,-12.9326086,-0.02931207791
23.61925359,-0.8811569214,-12.3481617,-0.1651047617
23.62925359,-1.040877819,-11.25224876,-0.9774680734
23.63925359,-1.645065546,-9.999007225,-1.724028707
23.64925359,-2.800200701,-9.226723671,-2.829512835
23.65925359,-2.800200701,-9.226723671,-2.829512835
23.66925359,-5.210371494,-9.174679756,-3.120838881
23.67925359,-6.260820389,-9.700503349,-2.534597397
23.68925359,-7.262814999,-10.72702408,-1.543968797
23.69925359,-7.877770424,-11.92044449,-0.5724828243
23.70925359,-8.152346611,-12.92602825,0.9140582681
23.71925359,-7.076174736,-12.59522057,1.001396298
23.72925359,-4.537389755,-11.67039394,1.165902853
23.73925359,-2.140978098,-11.08295631,1.628913999
23.74925359,-0.1794617027,-10.51226807,2.444268227
23.75925359,3.042474031,-9.349954605,2.29651165
23.76925359,6.247061729,-9.096913338,2.803789854
23.77925359,6.963712215,-10.00498962,-0.3690928817
23.78925359,5.683551788,-10.46919727,-2.761915445
23.79925359,2.923431158,-10.07617569,-3.296711445
23.80925359,1.73898387,-9.355937004,-2.243271112
23.81925359,0.4372883439,-8.833105087,-2.637488842
23.82925359,-0.2518445849,-8.167900085,-2.721835852
23.83925359,-0.5036891699,-7.875975609,-2.017149448
23.84925359,-0.8428717852,-8.083553314,-1.761117458
23.85925359,-0.9080761671,-7.497909546,-0.5653043389
23.86925359,-1.127617717,-7.14197731,-0.09451649338
23.87925359,-1.520040631,-6.959524632,-0.2243271172
23.88925359,-1.768295884,-6.80698204,-0.1477568001
23.89925359,-1.668395638,-6.677769661,-0.1704886109
23.90925359,-1.472184181,-6.462415695,-0.06759724021
23.91925359,-1.247856975,-6.265007973,-0.262014091
23.92925359,-1.01874423,-5.967101574,-0.4654040039
23.93925359,-0.7896314859,-5.726024628,-0.7118647099
23.94925359,-0.613160789,-5.754140377,-0.7830511928
23.95925359,-0.5174478889,-5.848058701,-1.051645517
23.96925359,-0.2404786795,-5.875576019,-1.213161111
23.97925359,0.1561316848,-5.989833355,-1.255633712
23.98925359,0.3762713671,-6.462415695,-1.344168067
23.99925359,0.7345965505,-7.144370079,-1.749153376
24.00925359,1.102493048,-8.017151833,-2.160120726
24.01925359,1.704886079,-9.162117958,-2.682354212
24.02925359,2.465205431,-10.54337502,-2.879761934
24.03925359,2.948555708,-12.30150127,-3.21954298
24.04925359,3.985844374,-14.45025635,-3.885345697
24.05925359,5.826523304,-15.93859196,-4.409972191
24.06925359,7.840083599,-16.35374641,-4.395017147
24.07925359,8.513064384,-14.84925938,-4.564907551
24.08925359,6.722635269,-13.25264835,-5.241477966
24.09925359,4.976472855,-11.74457169,-5.58843708
24.10925359,2.648854733,-11.1433754,-4.802993298
24.11925359,0.7968099117,-12.05563831,-3.082553864
24.12925359,-1.152742267,-13.55713463,-2.754737139
24.13925359,-2.964707375,-15.06401539,-3.082553864
24.14925359,-5.01475811,-16.72523117,-2.560320139
24.15925359,-6.630511761,-16.47398567,-2.334796667
24.16925359,-6.883552551,-15.18664742,-1.642672777
24.17925359,-5.611767292,-11.35813046,-0.6514459848
24.18925359,-5.142175674,-8.69551754,0.6364908218
24.19925359,-5.142175674,-6.909873486,1.270588875
24.20925359,-4.6935215,-5.826523304,1.077966571
24.21925359,-3.790829182,-4.811966419,0.4893322289
24.22925359,-3.060420275,-4.300500393,-0.09391828626
24.23925359,-2.41136694,-3.972085476,-0.4767699242
24.24925359,-1.644467354,-3.867399693,0.4319044948
24.25925359,-0.8769695163,-4.813760757,1.831705689
24.26925359,-0.09870393574,-6.831508636,3.205784082
24.27925359,0.1657029688,-8.476573944,3.77049017
24.28925359,0.2386840582,-10.42014408,3.849453449
24.29925359,0.4779663086,-12.078969,3.62452817
24.30925359,0.4354937077,-13.50868034,3.346960783
24.31925359,0.2344966233,-14.03809261,3.065205812
24.32925359,-0.3601198196,-13.69890976,2.380260229
24.33925359,-1.433300734,-11.91924763,1.578066587
24.34925359,-2.596810818,-9.93559742,1.021735311
24.35925359,-3.242872953,-8.969495773,1.049252748
24.36925359,-3.453441381,-8.448458672,1.128215909
24.37925359,-2.857030153,-8.433503151,0.3595215976
24.38925359,-1.572084427,-8.700901031,-0.3649054468
24.39925359,-0.7304090858,-8.565707207,-0.432502687
24.40925359,-0.4576273263,-8.604590416,-0.2979064286
24.41925359,-0.2039881349,-8.849256516,-0.1740778536
24.42925359,0.2596212626,-8.953942299,-0.2159522474
24.43925359,0.6520441771,-9.068798065,-0.1627119333
24.44925359,0.7615157962,-9.421140671,-0.4229314029
24.45925359,0.6179464459,-9.853643417,-0.8763712645
24.46925359,0.3499503136,-9.9643116,-0.8063812256
24.47925359,0.09212367237,-10.14736271,-0.6502495408
24.48925359,-0.1220339537,-10.53200912,-0.4139583111
24.49925359,-0.1507478207,-10.57567787,-0.3236292601
24.50925359,-0.08374879509,-10.58046341,-0.328414917
24.51925359,-0.1082752272,-10.38843918,-0.4133601189
24.52925359,-0.1423729509,-10.21436119,-0.7040880919
24.53925359,-0.2428714931,-9.988240242,-0.8949156404
24.54925359,-0.5108676553,-9.681958199,-0.9990034699
24.55925359,-0.8985049129,-9.252447128,-0.8255237937
24.56925359,-1.180259824,-8.909674644,-0.6137589812
24.57925359,-1.17068851,-9.023932457,-0.7052844763
24.58925359,-0.9320043921,-9.528220177,-1.095912814
24.59925359,-0.6311069727,-10.12463093,-1.347159147
24.60925359,-0.3726821244,-10.52124119,-1.401595831
24.61925359,-0.1232303679,-10.59960651,-1.080359459
24.62925359,0.1016949639,-10.48654556,-0.7722834945
24.63925359,0.2745763958,-10.277771,-0.5114658475
24.64925359,0.3744767308,-9.967302322,-0.4085744619
24.65925359,0.5036891699,-9.709476471,-0.3008974493
24.66925359,0.7052844763,-9.705288887,-0.132801652
24.67925359,1.059422255,-9.873384476,0.01615155302
24.68925359,1.465603828,-10.04148006,0.1172483116
24.69925359,1.767697692,-10.1330061,0.2709871531
24.70925359,1.939980984,-10.22453117,0.3954139352
24.71925359,1.868196249,-10.43091202,0.4749752879
24.72925359,1.562513232,-11.13978577,0.5126622319
24.73925359,1.34237349,-11.98026466,0.2189432681
24.74925359,1.041476011,-12.61496067,-0.0783649385
24.75925359,0.6490531564,-12.9637146,-0.2925225794
24.76925359,0.002991028363,-12.95294762,-0.5246263742
24.77925359,-0.5952146053,-12.68854046,-0.769890666
24.78925359,-1.030708313,-12.00000572,-0.733400166
24.79925359,-1.222134113,-11.2253294,-0.6717849374
24.80925359,-1.643270969,-10.1832552,-0.5330012441
24.81925359,-2.284547329,-9.256035805,-0.4624129832
24.82925359,-3.073580742,-8.57647419,-0.5473581553
24.83925359,-3.854837179,-8.151150703,-1.308874011
24.84925359,-4.587040901,-8.325826645,-1.734198213
24.85925359,-5.628517151,-9.260822296,-1.624128342
24.86925359,-6.645466805,-10.50150013,-0.865005374
24.87925359,-7.417151928,-11.65424252,0.498903513
24.88925359,-7.293921471,-12.12263775,-0.3415754437
24.89925359,-6.106483459,-11.76012516,0.7854440212
24.90925359,-3.798007727,-11.6524477,-0.06221338734
24.91925359,-0.9475577474,-10.27657509,0.656829834
24.92925359,2.143969059,-10.28554821,2.522035122
24.93925359,3.890131474,-9.999606133,2.961117983
24.94925359,6.581458569,-9.178269386,2.82831645
24.95925359,7.304090977,-10.2652092,-0.005383851007
24.96925359,5.783452511,-10.39083195,-3.101098061
24.97925359,3.913461447,-10.38724327,-3.146561861
24.98925359,2.97726965,-9.823135376,-2.351546526
24.99925359,1.867598057,-9.230911255,-2.371287346
25.00925359,1.17906332,-8.84387207,-2.352144718
25.01925359,0.8973084688,-8.592027664,-2.112264156
25.02925359,0.2572284341,-8.341380119,-1.730010748
25.03925359,-0.4498506486,-8.215158463,-1.339382529
25.04925359,-0.7453642488,-7.660023689,-0.5706881881
25.05925359,-1.213759303,-7.596015453,-0.2033899277
25.06925359,-1.438684583,-7.380661488,-0.2219343036
25.07925359,-1.643869162,-7.104888439,0.04725824669
25.08925359,-2.030309916,-6.882356167,0.3918247223
25.09925359,-2.136790514,-6.51146841,0.02512463741
25.10925359,-2.026720762,-6.257231236,-0.102293171
25.11925359,-1.965703845,-6.120840549,-0.4887340367
25.12925359,-1.650449395,-5.965306759,-0.7884350419
25.13925359,-1.197009563,-5.947958946,-1.169492126
25.14925359,-0.9104689956,-6.069993019,-1.509272933
25.15925359,-0.7812566161,-6.141179085,-1.590628862
25.16925359,-0.6711867452,-6.623931408,-1.722832322
25.17925359,-0.2937189937,-7.640881062,-2.06261301
25.18925359,0.498903513,-8.759525299,-2.94317174
25.19925359,1.067797065,-9.83868885,-3.206382275
25.20925359,1.838286042,-11.31027412,-3.471387386
25.21925359,2.871387243,-12.83091354,-3.582653761
25.22925359,4.41236496,-14.14696598,-3.355335474
25.23925359,5.589633465,-14.6321106,-2.898904562
25.24925359,6.267998695,-14.30608845,-2.937189817
25.25925359,6.022734642,-13.08275795,-3.457030535
25.26925359,5.343173027,-11.40718365,-3.611965895
25.27925359,4.055834293,-10.28734303,-3.729214191
25.28925359,2.893520832,-9.680762291,-3.691527128
25.29925359,1.268195987,-9.424730301,-3.543172121
25.30925359,-0.1992024779,-10.2221384,-3.333201885
25.31925359,-1.019940615,-11.9533453,-2.816352367
25.32925359,-1.600798368,-13.09890938,-1.858624935
25.33925359,-2.88993144,-14.16969776,-0.7016952634
25.34925359,-4.060021877,-15.41336727,-0.2159522474
25.35925359,-4.49970293,-15.34218025,-0.2219343036
25.36925359,-4.265206337,-13.32144165,0.3756731451
25.37925359,-4.016951084,-10.90708351,0.837487936
25.38925359,-3.985844374,-8.558527946,0.3355933726
25.39925359,-3.967299938,-7.174280643,0.08554340899
25.40925359,-3.877569199,-6.515655994,-0.3026920557
25.41925359,-3.562912941,-6.311667919,-0.7836494446
25.42925359,-2.971287489,-6.116054535,-1.345364571
25.43925359,-2.210968018,-6.157928944,-1.395015597
25.44925359,-1.411765337,-6.585646152,-1.088136077
25.45925359,-0.6604190469,-7.060023308,-0.8392825127
25.46925359,0.6035895348,-7.8341012,-0.1836491376
25.47925359,1.667199135,-8.78225708,0.8823533654
25.48925359,1.856830359,-9.958329201,2.19242382
25.49925359,0.7926225066,-11.86959648,3.081357241
25.50925359,0.3625126183,-12.58744335,2.97427845
25.51925359,0.27577281,-12.50249863,2.452643156
25.52925359,-0.3463610709,-11.24507046,2.516052961
25.53925359,-1.234696507,-10.30409241,3.452244759
25.54925359,-1.881356835,-9.833304405,3.102892876
25.55925359,-2.012962103,-9.144171715,1.584048629
25.56925359,-1.757528186,-8.824131966,0.2416750938
25.57925359,-1.275972724,-8.933603287,-0.6000002623
25.58925359,-0.851246655,-8.719446182,-1.123430252
25.59925359,-0.4019941986,-8.403593063,-1.081555843
25.60925359,-0.0005982056609,-8.411369324,-1.281356573
25.61925359,0.3248256743,-8.205587387,-1.240678549
25.62925359,0.5060819983,-8.238488197,-1.292722464
25.63925359,0.4731806815,-8.367700577,-1.245464206
25.64925359,0.2823530734,-8.834898949,-0.8566305041
25.65925359,-0.003589233849,-9.486943245,-0.7375875711
25.66925359,-0.4815555513,-10.2281208,-0.8255237937
25.67925359,-0.8691928387,-10.54875851,-0.8913264275
25.68925359,-1.184447169,-10.69771194,-0.8883354068
25.69925359,-1.280160069,-10.66002464,-0.8075776696
25.70925359,-1.232303619,-10.49791145,-0.7244270444
25.71925359,-1.112662554,-10.07737255,-0.6113662124
25.72925359,-1.222732425,-9.828518867,-0.6149554253
25.73925359,-1.347159147,-9.330811501,-0.5599204898
25.74925359,-1.485942841,-9.068199158,-0.4821537733
25.75925359,-1.481157184,-9.364909172,-0.560518682
25.76925359,-1.270588875,-9.622735977,-0.5850451589
25.77925359,-0.6921239495,-9.684949875,-0.4731806815
25.78925359,-0.03170489892,-9.929018021,-0.4049852192
25.79925359,0.5132604837,-10.16829967,-0.366101861
25.80925359,0.9206385016,-10.48116112,-0.04606183618
25.81925359,1.27477622,-10.56790161,0.1274178028
25.82925359,1.500299811,-10.59840965,0.4534398913
25.83925359,1.418943882,-10.4279213,0.7178468108
25.84925359,1.041476011,-10.20419216,0.890130043
25.85925359,0.5730810165,-9.984650612,0.9182456732
25.86925359,-0.1495514214,-9.793225288,0.7537391186
25.87925359,-0.7668996453,-9.84885788,0.4019941986
25.88925359,-1.17906332,-9.936794281,-0.08853443712
25.89925359,-1.15094769,-10.0019989,-0.4289134443
25.90925359,-0.5437689424,-10.13838959,-0.7244270444
25.91925359,0.2213360965,-10.49551868,-0.8865407705
25.92925359,0.8859425783,-11.2887392,-0.941575706
25.93925359,1.383649707,-11.98146152,-1.088136077
25.94925359,1.64626193,-12.34457207,-1.194616675
25.95925359,1.818545222,-12.54556942,-1.118644595
25.96925359,1.890928149,-12.42353535,-0.7728816867
25.97925359,1.820339799,-12.31705475,-0.2219343036
25.98925359,1.639083505,-12.08016491,0.128614217
25.99925359,1.15094769,-11.64048386,0.2063809484
26.00925359,0.7441678643,-11.1188488,0.1316052526
26.01925359,0.3038884699,-10.60977554,-0.1591227055
26.02925359,-0.2428714931,-9.83150959,-0.7214360237
26.03925359,-0.9320043921,-9.235696793,-1.156331539
26.04925359,-1.999801517,-8.906683922,-1.910070658
26.05925359,-3.211168051,-8.391629219,-2.500499725
26.06925359,-4.262215137,-8.577073097,-2.079362869
26.07925359,-4.863411903,-9.518648148,-1.6181463
26.08925359,-5.290530682,-10.7359972,0.08195417374
26.09925359,-5.304887772,-11.60040379,-0.1537388563
26.10925359,-4.768297195,-11.80319595,0.1250249892
26.11925359,-2.118844509,-11.14696407,-4.855037212
26.12925359,-0.06759724021,-11.99880886,-2.309672117
26.13925359,1.784447432,-12.19322586,1.402194023
26.14925359,4.081557274,-10.84128094,2.846860647
26.15925359,5.309075356,-9.707681656,2.398804665
26.16925359,5.848058701,-9.358329773,1.66600275
26.17925359,4.716851711,-9.806983948,-0.1561316848
26.18925359,3.203989506,-9.533603668,-1.26640141
26.19925359,2.375474691,-8.871390343,-1.576870084
26.20925359,1.858624935,-8.759525299,-1.965703845
26.21925359,1.323230863,-8.760123253,-1.934597135
26.22925359,0.5539384484,-9.078967094,-1.585245013
26.23925359,0.4624129832,-9.153144836,-1.983051777
26.24925359,-0.009571290575,-8.851649284,-1.303490162
26.25925359,-0.4157529473,-8.644071579,-0.8679963946
26.26925359,-1.313659668,-8.107481003,-0.2644068897
26.27925359,-2.083550215,-7.459026337,0.009571290575
26.28925359,-2.580659151,-7.053442955,0.1585244983
26.29925359,-2.772084951,-6.942774773,-0.0185443759
26.30925359,-2.710469961,-6.831508636,-0.1465603858
26.31925359,-2.404786825,-6.859025955,-0.3038884699
26.32925359,-2.056032896,-7.033702374,-0.7010970116
26.33925359,-1.783849239,-7.051050186,-0.9397810698
26.34925359,-1.483550072,-7.048657417,-1.220937729
26.35925359,-1.163509965,-7.165905476,-1.588834286
26.36925359,-0.7764709592,-7.379465103,-1.818545222
26.37925359,-0.4277170599,-7.802994728,-2.126621008
26.38925359,-0.07956135273,-8.440681458,-2.713460922
26.39925359,0.6514459848,-9.334999084,-3.43011117
26.40925359,1.453639746,-10.39621639,-4.314857483
26.41925359,2.266003132,-11.36291695,-4.987838745
26.42925359,3.016751051,-12.04666519,-4.96091938
26.43925359,3.768695593,-12.97268772,-4.523033142
26.44925359,4.091128349,-13.46560955,-3.720839262
26.45925359,4.025924206,-13.32024574,-2.474776745
26.46925359,3.266801119,-12.45045471,-1.576870084
26.47925359,2.414956331,-11.4323082,-1.569093466
26.48925359,1.643869162,-10.23828983,-1.980658889
26.49925359,1.092921734,-9.06341362,-2.492722988
26.50925359,0.59940207,-7.922037601,-2.841476917
26.51925359,0.2261217386,-7.314858913,-2.848655462
26.52925359,-0.2662015259,-7.192226887,-2.65364027
26.53925359,-0.4953143001,-7.87358284,-2.347358942
26.54925359,-0.7800601721,-9.323633194,-1.630110383
26.55925359,-0.8979067206,-10.78325558,-0.9116654396
26.56925359,-1.0863415,-12.36909866,0.03948157281
26.57925359,-1.33399868,-13.42552948,0.6257231236
26.58925359,-1.902892232,-13.60259819,0.5222335458
26.59925359,-2.45383954,-13.36451244,-0.06759724021
26.60925359,-2.689532757,-12.93859005,-0.8608179688
26.61925359,-2.400599241,-11.80080318,-2.14995122
26.62925359,-1.517647743,-10.58046341,-2.770888567
26.63925359,-0.6951149702,-9.720243454,-2.465205431
26.64925359,-0.3409772217,-9.278169632,-1.953739643
26.65925359,-0.01016949583,-8.817551613,-1.39860487
26.66925359,0.4540380836,-8.58365345,-1.232901812
26.67925359,1.066002488,-8.215158463,-1.137188911
26.68925359,1.754537225,-7.712665558,-1.025922656
26.69925359,2.251646042,-7.319644451,-1.05523479
26.70925359,2.734996319,-6.777071953,-0.5084748268
26.71925359,2.989831924,-6.976872444,0.05623133108
26.72925359,2.776272535,-7.852645874,0.7728816867
26.73925359,2.390429735,-8.848658562,1.579262972
26.74925359,1.464407444,-10.40818024,2.14995122
26.75925359,0.8871390224,-11.91386414,2.492124796
26.76925359,0.1908276081,-12.77946758,3.03948307
26.77925359,-0.2129612118,-12.35175037,2.001596212
26.78925359,-1.308874011,-11.26181984,1.99501586
26.79925359,-1.439880967,-10.02532864,0.9678967595
26.80925359,-1.237089276,-8.638090134,-0.3966103494
26.81925359,-1.11445713,-7.926225185,-0.9810572863
26.82925359,-1.105484009,-7.655237675,-1.386042476
26.83925359,-0.8566305041,-7.370491982,-1.024128079
26.84925359,-0.5156532526,-7.198806763,-0.0783649385
26.85925359,-0.09391828626,-7.817351341,0.1776670814
26.86925359,0.2021935135,-8.413763046,-0.1214357466
26.87925359,0.2925225794,-8.878568649,-0.7130611539
26.88925359,0.03290131316,-9.486345291,-1.594218135
26.89925359,-0.3266202807,-9.907482147,-2.359921217
26.90925359,-0.8488538265,-10.10070229,-2.90428853
26.91925359,-1.130608678,-10.46560764,-2.768495798
26.92925359,-1.115055323,-10.8047905,-2.109871387
26.93925359,-1.228116274,-10.86401272,-1.0863415
26.94925359,-1.235892892,-10.88435173,-0.142971158
26.95925359,-1.28315115,-10.74377346,0.3080759048
26.96925359,-1.120439172,-10.27418232,0.3212364316
26.97925359,-0.8961120844,-9.800403595,0.3248256743
26.98925359,-0.7004988194,-9.393623352,0.3188436031
26.99925359,-0.5473581553,-9.192625999,0.3254238665
27.00925359,-0.327816695,-9.057432175,0.2315055877
27.01925359,-0.07417750359,-9.171689034,0.1453639716
27.02925359,0.2416750938,-9.338588715,0.1262213886
27.03925359,0.494716078,-9.534201622,0.02093719877
27.04925359,0.7244270444,-9.716654778,0.1160518974
27.05925359,0.8775677085,-10.06062317,0.09092725813
27.06925359,0.9738788009,-10.38724327,0.2709871531
27.07925359,0.8021938205,-10.63370419,0.6664010882
27.08925359,0.6837490797,-10.47398281,1.112064362
27.09925359,0.4211367965,-10.25264645,1.596012712
27.10925359,-0.1280160099,-10.06421185,2.040479422
27.11925359,-0.7064808607,-9.931410789,2.149353027
27.12925359,-1.165902853,-10.01635551,1.888535261
27.13925359,-1.467398524,-10.25862885,1.517049551
27.14925359,-1.660020709,-10.62293625,0.8386843204
27.15925359,-1.670788407,-10.88136101,0.07058826834
27.16925359,-1.423131227,-10.90947628,-0.665802896
27.17925359,-0.9840483069,-10.9932251,-0.9948160052
27.18925359,-0.209371984,-11.35155106,-1.066002488
27.19925359,0.498903513,-11.9407835,-0.8757730722
27.20925359,1.064207911,-12.35833073,-0.6317051649
27.21925359,1.332203984,-12.39183044,-0.5114658475
27.22925359,1.375274777,-12.16750336,-0.4426721931
27.23925359,1.269990563,-11.89531994,-0.3601198196
27.24925359,1.198205948,-11.61476135,-0.07597211748
27.25925359,1.303490162,-11.36172009,0.02632104978
27.26925359,1.384247899,-11.0063858,-0.1764706671
27.27925359,1.475175142,-10.6420784,-0.2602194548
27.28925359,1.229312658,-10.25862885,-1.144367456
27.29925359,0.8201399446,-9.785448074,-2.580060959
27.30925359,0.1399801224,-9.646066666,-3.567698479
27.31925359,-0.9170492887,-9.483952522,-3.604189157
27.32925359,-1.441077471,-8.660821915,-2.088335991
27.33925359,-1.888535261,-8.669196129,-0.8255237937
27.34925359,-1.938784599,-8.944969177,0.3840480447
27.35925359,-1.291526079,-8.440083504,1.629512191
27.36925359,-0.7076773047,-9.334401131,1.564307809
27.37925359,0.06759724021,-10.16171932,1.56191504
27.38925359,0.4576273263,-10.90409279,0.2321037948
27.39925359,0.5300102234,-11.77268696,0.5335994363
27.40925359,1.373480201,-12.78544998,1.119242787
27.41925359,1.943570137,-12.5994072,2.118246317
27.42925359,2.024926186,-11.94018459,2.24267292
27.43925359,2.114656925,-10.88973618,1.972284079
27.44925359,2.271985054,-9.899106979,1.95015049
27.45925359,2.075773716,-9.310472488,1.924427629
27.46925359,1.77846539,-9.072985649,1.4267205
27.47925359,1.113858938,-9.307481766,1.307677627
27.48925359,0.6017948985,-9.780064583,1.054038405
27.49925359,0.2410768867,-10.15513897,-0.17587246
27.50925359,-0.04187439755,-10.43749237,-1.006780148
27.51925359,0.3164508045,-10.79581738,-1.022333503
27.52925359,-0.290129751,-11.04287624,-0.6669993401
27.53925359,-0.6334998012,-10.6295166,-0.2105683982
27.54925359,-1.417149186,-9.939785004,0.3457628787
27.55925359,-2.001596212,-8.952147484,-0.05204389244
27.56925359,-1.661217093,-8.325227737,0.8195417523
27.57925359,-1.632503271,-8.209774017,0.6675975323
27.58925359,-1.647458434,-8.026124954,0.4432703853
27.59925359,-1.633699656,-7.732406139,0.1818545163
27.60925359,-1.658226132,-7.68215704,-0.2488535494
27.61925359,-1.529611826,-7.709076405,-0.5407779217
27.62925359,-1.659422517,-7.892725468,-0.9924231768
27.63925359,-1.750947952,-8.062616348,-1.400997639
27.64925359,-1.579262972,-8.236693382,-1.851446509
27.65925359,-1.302293777,-8.421539307,-2.129014015
27.66925359,-0.8536394835,-8.81097126,-2.517847538
27.67925359,-0.1938186288,-9.302696228,-2.638087034
27.68925359,0.7734799385,-9.830911636,-2.2259233
27.69925359,1.859223247,-10.45304585,-2.06261301
27.70925359,2.284547329,-11.17866898,-2.319841623
27.71925359,2.542374134,-11.8654089,-2.663211584
27.72925359,2.77746892,-12.2165556,-2.39162612
27.73925359,2.399402857,-12.21057415,-2.608176708
27.74925359,2.039881229,-11.76790142,-3.047259569
27.75925359,1.675574064,-11.16790104,-3.327219963
27.76925359,1.35074842,-10.6295166,-3.03350091
27.77925359,1.05523479,-10.09352398,-2.279163599
27.78925359,0.3068794906,-9.705288887,-0.9912267923
27.79925359,-0.352343142,-9.283554077,-0.3738785386
27.80925359,-0.7298108935,-8.496315002,-0.03469592705
27.81925359,-0.7674978375,-7.509275436,0.5653043389
27.82925359,-1.178465128,-7.229315281,0.8763712645
27.83925359,-1.503290772,-7.441080093,1.017547846
27.84925359,-2.009372711,-8.152346611,1.403988719
27.85925359,-2.87318182,-9.415159225,1.923829436
27.86925359,-3.604189157,-10.62652493,1.904088616
27.87925359,-4.298107624,-11.50887871,1.373480201
27.88925359,-5.045266628,-12.10229874,0.5096712112
27.89925359,-6.014359951,-13.44646645,-1.968694806
27.90925359,-4.207778454,-14.32582951,-2.723630428
27.91925359,-0.4498506486,-13.28614807,-2.410768747
27.92925359,1.028315544,-12.23988628,-1.957927108
27.93925359,1.204786181,-10.74257755,-1.779661894
27.94925359,0.8548358679,-9.48873806,-1.835294962
27.95925359,0.7208378315,-8.398807526,-1.65164578
27.96925359,1.007976532,-7.734799385,-1.373480201
27.97925359,1.366899967,-6.853044033,-0.8350951076
27.98925359,1.659422517,-6.481558323,-0.5060819983
27.99925359,2.157129526,-6.783652306,-0.3529413342
28.00925359,2.824128866,-7.618747234,0.8656035662
28.01925359,2.936591625,-8.900103569,2.25104785
28.02925359,2.810370207,-10.21974564,3.506681681
28.03925359,1.873580098,-10.72702408,3.446861029
28.04925359,0.4127618968,-10.62054348,2.249851465
28.05925359,-1.563709617,-10.49013424,1.088734269
28.06925359,-3.287738323,-10.34417248,-0.2913261652
28.07925359,-3.07836628,-9.531808853,-0.8452646136
28.08925359,-2.160120726,-8.983254433,-0.3738785386
28.09925359,-1.514656782,-8.753543854,-0.2931207716
28.10925359,-0.8398807645,-8.662615776,-0.1992024779
28.11925359,-0.4480560422,-8.829515457,-0.2464607358
28.12925359,-0.5730810165,-9.549157143,-0.7926225066
28.13925359,-0.8039883971,-10.03071213,-1.859821439
28.14925359,-1.024726272,-10.40459061,-2.504687071
28.15925359,-0.5599204898,-11.14816093,-2.219941139
28.16925359,0.6711867452,-11.40538883,-0.7328019142
28.17925359,0.01375873014,-11.04646587,0.7369893789
28.18925359,-0.08673982322,-10.25743294,0.813559711
28.19925359,-0.5132604837,-9.743574142,0.4366901219
28.20925359,-0.7633104324,-9.395418167,-0.1268195957
28.21925359,-0.7968099117,-9.232108116,-0.2602194548
28.22925359,-0.9212366939,-9.136993408,-0.2021935135
28.23925359,-1.031306505,-9.117850304,-0.2219343036
28.24925359,-1.093519926,-9.041280746,-0.1692921966
28.25925359,-1.00737834,-9.017950058,-0.1304088384
28.26925359,-0.8733802438,-9.141778946,-0.1495514214
28.27925359,-0.7160521746,-9.164510727,-0.2979064286
28.28925359,-0.5533402562,-9.360123634,-0.3990031779
28.29925359,-0.3762713671,-9.623334885,-0.4139583111
28.30925359,-0.1704886109,-9.83868885,-0.328414917
28.31925359,0.111864455,-9.948758125,-0.342771858
28.32925359,0.4133601189,-10.16889763,-0.285344094
28.33925359,0.9822536707,-10.4165554,-0.3613162339
28.34925359,1.60378933,-10.69412231,-0.3032902777
28.35925359,2.126022816,-10.62473106,0.09212367237
28.36925359,2.394617319,-10.3214407,0.5928218365
28.37925359,2.395215511,-9.894321442,1.24666059
28.38925359,2.176272154,-9.305088997,1.805384636
28.39925359,1.664208174,-8.827122688,1.873580098
28.40925359,1.080359459,-8.500502586,1.590628862
28.41925359,0.342771858,-8.722436905,1.040279627
28.42925359,-0.2267199457,-9.263813019,0.3164508045
28.43925359,-0.6622136831,-9.792626381,-0.09092725813
28.44925359,-0.9451649189,-10.20179939,-0.5108676553
28.45925359,-0.9308080077,-10.47817039,-0.747158885
28.46925359,-0.6681957245,-10.6983099,-0.7286145091
28.47925359,-0.4755735099,-10.92622662,-0.2362912297
28.48925359,-0.4552344978,-11.13619614,0.4618147612
28.49925359,-0.4594219327,-11.19661522,0.9690931439
28.50925359,-0.4588237405,-11.19900799,1.318445325
28.51925359,-0.4965106845,-11.05783176,1.697707653
28.52925359,-0.5341976285,-11.11107159,1.792822361
28.53925359,-0.5006981492,-11.34556866,1.719841242
28.54925359,-0.199800685,-11.70329571,1.6181463
28.55925359,0.2153540403,-12.0670042,0.9469595551
28.56925359,0.299701035,-12.0604248,-0.1399801224
28.57925359,0.08793623,-11.84088326,-0.8380861282
28.58925359,-0.2811566591,-11.61236858,-1.384247899
28.59925359,-0.879960537,-11.40538883,-1.720439434
28.60925359,-1.405783296,-10.88853931,-1.762313843
28.61925359,-1.98963201,-10.31904793,-1.846660852
28.62925359,-2.45383954,-9.960722923,-1.81794703
28.63925359,-2.927020311,-9.569496155,-1.630110383
28.64925359,-3.113062143,-9.369695663,-1.533799291
28.65925359,-2.816352367,-9.08853817,-1.310668588
28.66925359,-2.438884497,-8.873783112,-1.144965649
28.67925359,-2.027318954,-8.773283958,-1.05224371
28.68925359,-1.060618639,-8.742177963,-0.6077769399
28.69925359,0.2644068897,-8.895318031,-0.4115654826
28.70925359,1.900499344,-9.696315765,0.08733802289
28.71925359,2.782254457,-10.70130062,0.9272187948
28.72925359,2.897708178,-11.80558872,0.7770691514
28.73925359,2.103889227,-12.20818138,0.7663014531
28.74925359,1.462014675,-11.64048386,0.2219343036
28.75925359,2.218146563,-11.40897846,0.7627122402
28.76925359,2.194218397,-11.07876873,0.7740781307
28.77925359,1.642672777,-10.30469036,0.1591227055
28.78925359,0.4127618968,-9.957731247,-0.37986058
28.79925359,-0.6681957245,-9.546764374,-0.3954139352
28.80925359,-1.648056626,-9.448060036,-0.2548356056
28.81925359,-1.576271892,-9.324232101,-0.1585244983
28.82925359,-1.399203062,-9.291330338,-0.0568295382
28.83925359,-1.289133191,-9.314062119,-0.2386840582
28.84925359,-0.9978070259,-9.407979965,-0.4869394004
28.85925359,-0.285344094,-9.312267303,-0.3541377485
28.86925359,-1.146760225,-9.120243073,-0.6005984545
28.87925359,-1.932204247,-8.50469017,-1.164706469
28.88925359,-2.109871387,-8.053044319,-1.45483613
28.89925359,-1.736590981,-7.838288784,-1.351346612
28.90925359,-1.268195987,-7.660621643,-1.362712502
28.91925359,-0.7513462901,-7.561319351,-1.043868899
28.92925359,-0.4977070987,-7.441678524,-1.076171994
28.93925359,-0.4211367965,-7.365706444,-0.97926265
28.94925359,-0.5216353536,-7.378866673,-1.104287624
28.95925359,-0.72323066,-7.444669247,-1.368694544
28.96925359,-0.8380861282,-7.424330235,-1.541576028
28.97925359,-0.7716853023,-7.403991699,-1.718644857
28.98925359,-0.8003991842,-7.561319351,-1.805982947
28.99925359,-0.8045865893,-7.677371502,-1.634297848
29.00925359,-0.6424728632,-8.048258781,-1.980658889
29.01925359,-0.500099957,-8.681160927,-2.582453728
29.02925359,-0.3086741269,-9.177073479,-2.872583628
29.03925359,0.2841476798,-9.71186924,-2.979064226
29.04925359,0.8291130662,-10.64327526,-3.17407918
29.05925359,1.7138592,-11.78943729,-3.427120209
29.06925359,2.881556749,-12.75135231,-3.323032379
29.07925359,4.54217577,-13.60080433,-2.733201742
29.08925359,5.235496044,-13.73898983,-2.688336134
29.09925359,4.555934429,-13.4213419,-3.03888464
29.10925359,3.608376503,-12.62812138,-3.003590584
29.11925359,3.120838881,-11.38564873,-2.76311183
29.12925359,2.633301258,-9.757930756,-2.194218397
29.13925359,2.044667006,-8.495717049,-2.044667006
29.14925359,1.518245935,-7.528418064,-2.199003935
29.15925359,1.039681435,-7.311867714,-2.414956331
29.16925359,0.4899304509,-8.102695465,-2.350350142
29.17925359,0.0382851623,-9.869794846,-1.472184181
29.18925359,-0.7058826685,-11.66560841,-0.6771687865
29.19925359,-1.875972986,-13.06600761,-0.2979064286
29.20925359,-2.836092949,-13.72463226,0.02931207791
29.21925359,-3.366103172,-13.88973713,0.2991028428
29.22925359,-3.337987661,-13.04207993,0.2566302419
29.23925359,-3.119642496,-11.31685448,-0.08135596663
29.24925359,-3.044268608,-10.08514881,-0.3888336718
29.25925359,-2.820539713,-9.053244591,-0.7501499057
29.26925359,-2.24267292,-8.438887596,-0.9834501147
29.27925359,-1.62652123,-8.487939835,-1.493719578
29.28925359,-1.162911773,-8.347361565,-1.673181176
29.29925359,-0.613160789,-8.141578674,-1.664806366
29.30925359,-0.01136590727,-7.746763229,-1.880160451
29.31925359,0.4372883439,-7.405188084,-2.182852507
29.32925359,0.7627122402,-7.253243446,-1.907677889
29.33925359,0.8213363886,-7.643871784,-1.441077471
29.34925359,0.4839483798,-9.06700325,-0.4169493318
29.35925359,0.08973085135,-10.70070267,0.5288137794
29.36925359,0.1579262912,-11.99462128,0.8464609981
29.37925359,0.06340979785,-12.03888893,1.707877159
29.38925359,-0.1495514214,-11.42094231,3.10947299
29.39925359,-0.7992027402,-10.79342461,3.733401537
29.40925359,-1.25503552,-9.410373688,2.931207657
29.41925359,-1.442872047,-8.268997192,2.46819663
29.42925359,-1.47756803,-7.854440212,2.001596212
29.43925359,-1.573879123,-7.579265594,1.672582984
29.44925359,-1.226321578,-7.755736351,0.8584251404
29.45925359,-0.8009973764,-8.268398285,0.2392822653
29.46925359,-0.4809573591,-8.515457153,-0.005383851007
29.47925359,-0.4145565331,-8.834898949,-0.1746760458
29.48925359,-0.6011967063,-8.997013092,-0.2913261652
29.49925359,-0.9978070259,-9.135796547,-0.3846462369
29.50925359,-1.161117196,-9.21535778,-0.6729813814
29.51925359,-1.313659668,-9.45583725,-0.4791627228
29.52925359,-1.600200176,-9.815957069,-0.3433700502
29.53925359,-1.80119729,-9.940383911,-0.4217349887
29.54925359,-1.667199135,-10.0205431,-0.5078766346
29.55925359,-1.303490162,-10.07318497,-0.4731806815
29.56925359,-0.9828519225,-9.973882675,-0.2321037948
29.57925359,-0.9732806087,-9.940981865,-0.2075773627
29.58925359,-1.021137118,-9.644869804,-0.08135596663
29.59925359,-1.093519926,-9.4809618,-0.2482553422
29.60925359,-1.280160069,-9.187840462,-0.5012963414
29.61925359,-1.562513232,-9.298508644,-0.4743770957
29.62925359,-1.619342685,-9.628718376,-0.4426721931
29.63925359,-1.428515077,-9.761520386,-0.5916253924
29.64925359,-1.117448211,-9.732806206,-0.5276173949
29.65925359,-0.5766702294,-9.857831001,-0.3924229145
29.66925359,0.01136590727,-10.01994514,-0.4486542344
29.67925359,0.494716078,-10.3028965,-0.2572284341
29.68925359,0.8919246197,-10.56670475,-0.156729877
29.69925359,1.289133191,-10.82094193,-0.003589233849
29.70925359,1.518844128,-10.81615639,0.04067798331
29.71925359,1.628315806,-10.56251717,0.02811566554
29.72925359,1.633101463,-10.29392338,0.005982056726
29.73925359,1.465603828,-10.05942631,-0.05563312769
29.74925359,1.202393413,-10.00139999,-0.166301176
29.75925359,0.8865407705,-10.16351414,-0.2931207716
29.76925359,0.6903293133,-10.33998489,-0.4145565331
29.77925359,0.7190431952,-10.45902824,-0.5060819983
29.78925359,0.8338986635,-10.56849957,-0.6167500615
29.79925359,0.8913264275,-11.08475113,-0.6675975323
29.80925359,1.149751306,-11.77388382,-0.6520441771
29.81925359,1.298106313,-12.05204964,-0.5575276613
29.82925359,1.188634634,-12.25005531,-0.3098705411
29.83925359,0.9547362328,-12.26560879,-0.1339980662
29.84925359,0.6586244106,-12.27099228,-0.04366901144
29.85925359,0.4719842672,-12.04307652,0.1483550072
29.86925359,0.4576273263,-11.81815147,0.2069791555
29.87925359,0.1609173268,-11.26241779,0.06580262631
29.88925359,-0.5096712112,-10.25025368,-0.3708875179
29.89925359,-1.44347024,-9.558130264,-1.011565804
29.90925359,-2.258226395,-9.108279228,-1.816152334
29.91925359,-3.798605919,-9.293125153,-2.359921217
29.92925359,-5.240880013,-9.864411354,-1.468594909
29.93925359,-6.59043169,-10.89093208,0.2578266263
29.94925359,-7.550551891,-11.86720371,0.8368897438
29.95925359,-8.300103188,-12.60778236,1.308275819
29.96925359,-6.665207386,-12.42712402,0.9708877802
29.97925359,-3.797409534,-12.33559895,0.4893322289
29.98925359,-0.8835497499,-11.0440731,1.686341763
29.99925359,0.4600201547,-11.33539867,1.814357758
30.00925359,3.864408493,-10.3226366,1.791027784
30.01925359,5.949753284,-9.372088432,2.331805706
30.02925359,5.862415314,-9.894919395,-1.301695466
30.03925359,4.847858906,-10.28435135,-1.877767563
30.04925359,3.858426571,-9.866206169,-1.563111424
30.05925359,2.666202545,-9.235696793,-2.286940336
30.06925359,1.557129383,-8.635697365,-1.923231244
30.07925359,1.05523479,-8.515457153,-2.048854351
30.08925359,0.5826523304,-9.0921278,-1.728814363
30.09925359,0.5335994363,-9.08853817,-2.34676075
30.10925359,0.195015043,-8.638688087,-1.650449395
30.11925359,-0.5258227587,-8.14696312,-0.7980063558
30.12925359,-1.17068851,-7.704888821,-0.3571287692
30.13925359,-1.624726534,-7.247859955,-0.03050848842
30.14925359,-1.992623091,-6.724429607,0.3355933726
30.15925359,-2.246262312,-6.150750637,0.4289134443
30.16925359,-2.26540494,-5.849255085,0.4019941986
30.17925359,-2.480758905,-5.73260498,0.1531406492
30.18925359,-2.515454769,-5.676971912,-0.3780659735
30.19925359,-2.071586132,-5.717051506,-0.7932206988
30.20925359,-1.588834286,-5.925227165,-1.060618639
30.21925359,-1.240080357,-6.101697922,-1.156331539
30.22925359,-0.9481559992,-6.345167637,-1.180858016
30.23925359,-0.6472585201,-6.845267296,-1.575673699
30.24925359,-0.2410768867,-7.659425259,-2.115255117
30.25925359,0.1549352705,-8.55134964,-2.603390932
30.26925359,0.747158885,-9.818947792,-3.355933666
30.27925359,1.421934843,-11.04227829,-3.595814228
30.28925359,2.129014015,-12.273386,-4.060619831
30.29925359,3.028116941,-13.59601784,-4.439284325
30.30925359,3.884747505,-14.51486206,-4.302893162
30.31925359,5.023132801,-14.76012611,-3.993621111
30.32925359,5.425127029,-14.01416397,-3.833899975
30.33925359,4.869992256,-12.53181076,-3.726222992
30.34925359,4.14257431,-11.42752266,-3.554538012
30.35925359,3.080759048,-10.17428207,-3.598206997
30.36925359,1.951945066,-9.133403778,-3.418745279
30.37925359,0.8039883971,-8.589634895,-3.29551506
30.38925359,0.3260220885,-8.685347557,-3.336193085
30.39925359,0.07357929647,-9.979865074,-3.01974225
30.40925359,-0.5312066078,-11.81934738,-2.066202402
30.41925359,-1.441675663,-13.20000648,-0.9918249846
30.42925359,-2.764906645,-14.07518101,-0.5282155871
30.43925359,-3.548556089,-14.40778351,-0.2219343036
30.44925359,-4.035495281,-13.9860487,0.3631108403
30.45925359,-4.2071805,-12.73161125,1.006780148
30.46925359,-4.30827713,-10.44706345,1.427916884
30.47925359,-4.433900356,-9.108877182,0.9810572863
30.48925359,-4.607379913,-8.022536278,0.2548356056
30.49925359,-4.414159775,-7.262814999,-1.089930773
30.50925359,-3.803989887,-6.806384087,-2.027917147
30.51925359,-2.94377017,-6.631109715,-2.406581402
30.52925359,-2.054836512,-6.457630157,-2.430509567
30.53925359,-0.6813562512,-6.522236347,-1.908874273
30.54925359,0.7214360237,-7.030112743,-0.8817551732
30.55925359,1.871187329,-7.575676441,0.0382851623
30.56925359,2.374876499,-8.246265411,0.9170492887
30.57925359,1.808375716,-10.23948669,1.994417667
30.58925359,1.066002488,-11.99581814,3.421736479
30.59925359,0.6227321029,-12.76750374,4.305285931
30.60925359,-0.2799602449,-12.12682533,5.024329185
30.61925359,-1.580459356,-10.5792675,5.316253662
30.62925359,-2.356930256,-9.407382011,4.530809879
30.63925359,-2.565704107,-9.132805824,2.764906645
30.64925359,-1.99501586,-9.025727272,0.9912267923
30.65925359,-1.32801652,-8.726025581,-0.1202393398
30.66925359,-0.3493520916,-8.632705688,-1.097109199
30.67925359,0.4683950245,-8.846264839,-1.320838094
30.68925359,0.917647481,-8.95513916,-1.453639746
30.69925359,1.055832982,-9.001200676,-1.712064624
30.70925359,1.074377418,-9.165707588,-2.210968018
30.71925359,0.9882357717,-9.533603668,-2.251646042
30.72925359,0.7974081635,-9.960124016,-2.193022013
30.73925359,0.4384847581,-10.23709393,-2.378465652
30.74925359,-0.002392822644,-10.16650486,-2.982653379
30.75925359,-0.4133601189,-9.9140625,-2.810370207
30.76925359,-0.5509474277,-9.814162254,-2.063211441
30.77925359,-0.5066801906,-9.627521515,-1.290927768
30.78925359,-0.5012963414,-9.437891006,-0.9355936646
30.79925359,-0.6825526357,-9.138788223,-0.6179464459
30.80925359,-0.97926265,-8.871988297,-0.4689932466
30.81925359,-1.318445325,-8.706285477,-0.2201396823
30.82925359,-1.461416483,-8.779864311,0.03708875179
30.83925359,-1.441675663,-9.450452805,0.1668993831
30.84925359,-1.20179522,-9.796813965,0.4049852192
30.85925359,-0.6233302951,-9.949954987,0.4929214716
30.86925359,-0.1064806059,-10.34177971,0.4492524564
30.87925359,0.2470589429,-10.57986546,0.3433700502
30.88925359,0.7298108935,-10.70369434,0.3206382394
30.89925359,1.045663476,-10.62772179,0.4660021961
30.90925359,1.051047325,-10.52363396,0.6340979934
30.91925359,0.8787640929,-10.37109184,0.6969096065
30.92925359,0.6011967063,-10.10728264,0.6161518097
30.93925359,0.3714857101,-9.891928673,0.5928218365
30.94925359,0.1513460279,-9.948758125,0.457029134
30.95925359,0.04127619043,-10.15334511,0.1968096644
30.96925359,0.1698904037,-10.41535854,0.008973085321
30.97925359,0.5808576941,-10.87298584,-0.1788634956
30.98925359,1.03549397,-11.56092262,-0.3110669553
30.99925359,1.470389485,-12.52104282,-0.5401797295
31.00925359,1.771885157,-13.11745358,-0.7968099117
31.01925359,1.824527264,-13.2083807,-0.8261220455
31.02925359,1.513460279,-13.01276779,-0.7154539824
31.03925359,1.13120687,-12.73639679,-0.5814558864
31.04925359,0.9302098155,-12.41695499,-0.4366901219
31.05925359,0.6245267391,-11.86241817,-0.3816552162
31.06925359,0.3756731451,-11.35035419,-0.3696911037
31.07925359,0.2129612118,-10.57149029,-0.1878365725
31.08925359,-0.02213360928,-9.848259926,-0.3326023519
31.09925359,-0.3146561682,-9.219545364,-0.6317051649
31.10925359,-0.9224331379,-8.525029182,-0.8165507317
31.11925359,-1.837089539,-8.172685623,-1.411167145
31.12925359,-2.79421854,-7.778468132,-1.824527264
31.13925359,-3.531208038,-7.728816986,-2.185843468
31.14925359,-4.352544308,-8.459824562,-1.791625977
31.15925359,-4.785047054,-9.569496155,-0.4259224236
31.16925359,-4.707280159,-10.3663063,-0.05264209956
31.17925359,-4.074976921,-11.17268753,0.418743968
31.18925359,-3.099303484,-11.97966671,0.2500499785
31.19925359,-0.6741777658,-12.23031521,0.8464609981
31.20925359,0.9487541914,-12.02991581,1.945963025
31.21925359,-0.6101697683,-11.65424252,21.82912254
31.22925359,5.325226784,-9.754940033,-2.270190477
31.23925359,4.673780918,-10.82692432,-3.136392355
31.24925359,3.434298754,-10.87059307,-0.9774680734
31.25925359,2.554338217,-9.924830437,-0.7734799385
31.26925359,1.860419631,-9.79501915,-0.9667003751
31.27925359,1.279561877,-10.1210413,-2.450848579
31.28925359,1.160519004,-9.811769485,-2.200200319
31.29925359,1.682154298,-9.512666702,-1.693520188
31.30925359,1.410568953,-9.46720314,-1.344766378
31.31925359,0.693320334,-9.291928291,-1.183848977
31.32925359,-0.142971158,-8.873184204,-0.8871390224
31.33925359,-0.6311069727,-8.304290771,-0.9092726111
31.34925359,-1.300499082,-7.698906898,-0.5970092416
31.35925359,-1.711466432,-6.967899323,-0.4600201547
31.36925359,-2.094317913,-6.30927515,-0.2033899277
31.37925359,-2.452643156,-6.033502102,-0.006580262445
31.38925359,-2.55792737,-5.869594097,-0.1686939895
31.39925359,-2.611167669,-5.758327484,-0.3649054468
31.40925359,-2.410170555,-5.680561066,-0.4881358147
31.41925359,-1.980060697,-5.755934715,-0.6305087805
31.42925359,-1.45483613,-5.802595139,-0.8297112584
31.43925359,-1.138983607,-5.993422508,-0.8297112584
31.44925359,-0.9954141974,-6.298507214,-0.9894321561
31.45925359,-0.6233302951,-7.084549427,-1.514656782
31.46925359,-0.05982056633,-8.198408127,-2.367099762
31.47925359,0.5659025311,-9.427721024,-3.153141975
31.48925359,0.9194421172,-10.43928719,-3.651447296
31.49925359,1.378265858,-11.66142082,-4.078566074
31.50925359,1.894517303,-12.7495575,-4.495515347
31.51925359,2.587837696,-13.7671051,-4.691128731
31.52925359,3.454039574,-14.29532051,-4.288536549
31.53925359,4.104887009,-14.07099342,-4.097708702
31.54925359,4.281956196,-13.17847061,-3.713062525
31.55925359,4.067200184,-11.60279655,-3.100499868
31.56925359,3.287140131,-10.47517967,-2.967100143
31.57925359,2.406581402,-9.884152412,-3.464807272
31.58925359,1.320239902,-9.828518867,-4.052843571
31.59925359,0.6287141442,-10.92024422,-3.276970625
31.60925359,0.2446661144,-12.78724384,-1.772483349
31.61925359,-1.091725349,-14.31625748,-0.8249256015
31.62925359,-2.239083767,-14.89771366,-0.5312066078
31.63925359,-3.678366661,-14.85583973,-0.589232564
31.64925359,-4.495515347,-14.0494585,-0.3242274821
31.65925359,-4.530211449,-12.13460159,-0.3314059377
31.66925359,-4.272384644,-10.1210413,-0.1256231815
31.67925359,-3.952943087,-8.288737297,-0.03170489892
31.68925359,-3.480360508,-7.039085865,-0.02632104978
31.69925359,-2.882753134,-6.224329948,-0.1196411327
31.70925359,-2.391027927,-5.886343479,-0.5036891699
31.71925359,-1.684547186,-5.661418438,-1.155135155
31.72925359,-0.9541380405,-5.519643784,-1.578066587
31.73925359,-0.1842473447,-5.589633465,-1.73360002
31.74925359,0.6382854581,-6.047261238,-1.938784599
31.75925359,1.332802176,-6.774080753,-1.203589797
31.76925359,2.048256159,-8.337192535,0.1585244983
31.77925359,2.252842426,-10.36750221,1.837089539
31.78925359,1.788036704,-12.75553894,3.290131092
31.79925359,1.860419631,-14.01476192,3.411566973
31.80925359,1.554138303,-13.69412422,3.336193085
31.81925359,-0.6173482537,-12.62393379,3.353540897
31.82925359,-1.849651933,-10.61515903,1.901097536
31.83925359,-2.340180635,-9.129216194,0.6969096065
31.84925359,-2.164308071,-8.594420433,0.1411765367
31.85925359,-1.577468276,-8.394021988,-0.4875376225
31.86925359,-0.9619147182,-8.167900085,-1.322034478
31.87925359,-0.3936193287,-7.820342541,-1.676770449
31.88925359,0.02751746029,-7.802994728,-1.358525038
31.89925359,0.2961117923,-7.828717709,-1.061216831
31.90925359,0.5066801906,-7.911269665,-0.8021938205
31.91925359,0.7076773047,-8.355736732,-0.8518448472
31.92925359,0.6454638839,-8.948558807,-0.9900303483
31.93925359,0.3302095234,-9.48873806,-1.109671474
31.94925359,-0.2195414752,-9.753145218,-1.060618639
31.95925359,-0.7453642488,-10.00738239,-0.9876375198
31.96925359,-0.9840483069,-10.16231823,-0.7597211599
31.97925359,-1.212562919,-10.06899738,-0.3720839322
31.98925359,-1.403988719,-9.869794846,-0.1848455518
31.99925359,-1.499103427,-9.822537422,-0.1082752272
32.00925359,-1.566102386,-9.64068222,-0.05503492057
32.01925359,-1.618744493,-9.358329773,-0.06759724021
32.02925359,-1.91066885,-8.956933022,-0.03768695518
32.03925359,-2.10209465,-9.072386742,0.0568295382
32.04925359,-2.078166485,-9.598209381,-0.03768695518
32.05925359,-1.762313843,-9.928419113,0.009571290575
32.06925359,-1.284347534,-10.01396275,-0.07058826834
32.07925359,-0.5910272002,-10.0893364,-0.1016949639
32.08925359,0.08374879509,-10.14257717,0.001196411322
32.09925359,0.6909275651,-10.15214825,0.1322034448
32.10925359,1.03549397,-10.25324535,0.2578266263
32.11925359,1.265205026,-10.5355978,0.299701035
32.12925359,1.308275819,-10.70309544,0.3086741269
32.13925359,1.423131227,-10.67856884,0.2183450609
32.14925359,1.56191504,-10.62054348,0.166301176
32.15925359,1.795813441,-10.72463131,-0.02033899166
32.16925359,2.001596212,-10.9489584,-0.102293171
32.17925359,2.201995134,-11.23071289,-0.1561316848
32.18925359,2.383849621,-11.62253761,-0.2009970993
32.19925359,2.484348059,-12.12443256,-0.3565305769
32.20925359,2.656631231,-12.89372444,-0.500099957
32.21925359,2.632703066,-13.16949749,-0.7842476368
32.22925359,2.196611166,-13.00558949,-1.019342422
32.23925359,1.512862086,-12.69033527,-0.9912267923
32.24925359,0.5425725579,-12.35234833,-0.8685946465
32.25925359,-0.2847459018,-11.85643578,-0.6771687865
32.26925359,-0.485144794,-11.26062298,-0.3098705411
32.27925359,-0.5569294691,-10.70189953,-0.09631111473
32.28925359,-0.8823533654,-10.1712904,-0.07956135273
32.29925359,-1.697109461,-9.338588715,-0.9487541914
32.30925359,-2.675175667,-8.685347557,-2.203191519
32.31925359,-3.470191002,-8.428119659,-2.860619545
32.32925359,-4.31126833,-8.483154297,-2.644068956
32.33925359,-5.727818966,-9.51386261,-0.9990034699
32.34925359,-6.763911247,-11.11226845,-0.3954139352
32.35925359,-7.341778278,-12.35713387,-0.3433700502
32.36925359,-6.442076683,-12.13041401,0.2027917206
32.37925359,-4.585246563,-12.24526978,1.209571838
32.38925359,-1.433898926,-11.54118156,1.537388563
32.39925359,0.3080759048,-10.92861938,2.496312141
32.40925359,2.71824646,-10.76830006,2.458625317
32.41925359,4.945964336,-9.551549911,2.61415863
32.42925359,6.001199245,-8.531609535,1.916052699
32.43925359,4.773681164,-9.470193863,-0.4319044948
32.44925359,2.513660192,-9.991230965,-2.335394859
32.45925359,1.025922656,-9.866804123,-2.579462767
32.46925359,0.2566302419,-9.295517921,-2.176870346
32.47925359,0.4474578202,-9.016156197,-2.452044964
32.48925359,0.6873382926,-9.172885895,-1.810170293
32.49925359,0.6550351977,-9.15733242,-1.288534999
32.50925359,-0.02093719877,-9.056235313,-2.185843468
32.51925359,-0.7040880919,-8.10807991,-1.689332843
32.52925359,-1.157527924,-7.418946743,-0.9918249846
32.53925359,-1.864008784,-7.069594383,-0.2506481707
32.54925359,-2.275574446,-6.611967087,-0.004785645287
32.55925359,-2.63389945,-6.229713917,-0.008374879137
32.56925359,-2.77746892,-6.014359951,-0.01734796353
32.57925359,-2.859423161,-5.918048382,-0.08913264424
32.58925359,-2.682952404,-5.906084538,-0.5048855543
32.59925359,-2.35812664,-5.96590519,-0.7962117195
32.60925359,-1.985444546,-6.079564095,-0.9439685345
32.61925359,-1.569691658,-6.20817852,-0.9619147182
32.62925359,-1.144367456,-6.607779503,-1.278963685
32.63925359,-0.6951149702,-7.213163853,-1.673779488
32.64925359,-0.01196411345,-8.107481003,-2.409572363
32.65925359,0.8045865893,-9.058030128,-3.341576815
32.66925359,1.540379524,-10.13121128,-3.867399693
32.67925359,2.080559254,-11.00459099,-4.115056515
32.68925359,2.59740901,-12.31825066,-4.442275047
32.69925359,3.376870871,-13.51884937,-4.49970293
32.70925359,4.137788773,-14.05125237,-4.198207378
32.71925359,4.458426952,-13.63908863,-4.247260094
32.72925359,4.219144344,-12.69751358,-4.107878208
32.73925359,3.664009571,-11.49272728,-3.915854216
32.74925359,3.042474031,-10.53739262,-3.72024107
32.75925359,2.228914261,-9.819545746,-3.800400496
32.76925359,1.473380566,-9.34815979,-3.546761274
32.77925359,0.4127618968,-9.046066284,-2.983849764
32.78925359,-0.02153540403,-9.693324089,-2.91266346
32.79925359,-0.0005982056609,-11.28335476,-1.979462504
32.80925359,-0.8015955687,-12.82612801,-1.082752228
32.81925359,-1.804188251,-14.10210037,-0.7064808607
32.82925359,-3.23330164,-15.13759422,-0.6323033571
32.83925359,-3.912265062,-15.10469341,-0.5676971674
32.84925359,-3.812364578,-13.76231956,-0.24765715
32.85925359,-3.616751432,-11.98265743,-0.1064806059
32.86925359,-3.55992198,-9.74835968,0.08973085135
32.87925359,-3.418147087,-8.309076309,-0.4606183469
32.88925359,-3.156133175,-7.459026337,-0.8997012973
32.89925359,-2.970091105,-7.304090977,-1.180259824
32.90925359,-2.636292458,-7.129415035,-1.47457695
32.91925359,-2.162513494,-6.847660065,-1.365703583
32.92925359,-1.45483613,-6.693921566,-1.376471281
32.93925359,-0.628115952,-6.644868374,-1.420738459
32.94925359,0.1178465188,-6.702894211,-1.298704505
32.95925359,1.165902853,-6.942176819,-1.104885817
32.96925359,2.152343988,-7.688737392,-0.2147558331
32.97925359,2.032104731,-9.767501831,1.490728498
32.98925359,1.17906332,-11.85643578,2.522633314
32.99925359,0.6346961856,-13.48056412,2.730210543
33.00925359,0.8350951076,-13.25803185,2.431107759
33.01925359,-0.05742774159,-11.55314636,3.640081406
33.02925359,-1.119242787,-9.777671814,4.202992916
33.03925359,-1.589432478,-9.01675415,3.473181963
33.04925359,-1.500898004,-8.404789925,2.060220242
33.05925359,-1.426122308,-8.260024071,1.098903775
33.06925359,-1.160519004,-8.734998703,-0.1627119333
33.07925359,-1.007976532,-8.651848793,-0.4438686073
33.08925359,-0.5928218365,-8.404789925,-0.8955138922
33.09925359,-0.2249253243,-8.404191017,-0.9134600163
33.10925359,-0.1962114573,-8.418548584,-0.932602644
33.11925359,-0.4109672904,-8.553144455,-0.8434699774
33.12925359,-0.784845829,-8.956335068,-1.460219979
33.13925359,-1.1395818,-9.244669914,-2.100300074
33.14925359,-1.503290772,-9.48873806,-2.189432621
33.15925359,-1.813161373,-9.805787086,-1.962712765
33.16925359,-1.87956214,-9.936794281,-1.715055585
33.17925359,-1.592423439,-9.938589096,-1.426122308
33.18925359,-0.9367900491,-9.997811317,-1.046261668
33.19925359,-0.2380858511,-10.11924744,-0.7040880919
33.20925359,0.1256231815,-10.03789139,-0.5730810165
33.21925359,0.3457628787,-9.866206169,-0.522831738
33.22925359,0.3074777126,-9.760921478,-0.4648058116
33.23925359,0.1782652885,-9.703494072,-0.4749752879
33.24925359,0.1543370634,-9.383454323,-0.4007977843
33.25925359,0.2021935135,-9.321838379,-0.3092723191
33.26925359,0.3601198196,-9.498309135,-0.4055834413
33.27925359,0.522831738,-9.69452095,-0.3822534084
33.28925359,0.5473581553,-10.04506969,-0.2027917206
33.29925359,0.4857429862,-10.2089777,0.04007977992
33.30925359,0.4283152521,-10.20120144,0.3128615618
33.31925359,0.304486692,-10.07378292,0.524028182
33.32925359,0.04606183618,-9.949356079,0.5192425251
33.33925359,-0.1740778536,-9.868000984,0.5042873621
33.34925359,-0.2931207716,-9.868000984,0.4797609448
33.35925359,-0.1549352705,-10.06241703,0.2350948304
33.36925359,-0.02632104978,-10.39143085,0.008374879137
33.37925359,0.313459754,-10.66720295,-0.1740778536
33.38925359,0.7770691514,-10.91545868,-0.2793620527
33.39925359,1.312463164,-11.33599758,-0.2656033039
33.40925359,1.667199135,-12.14955711,-0.2213360965
33.41925359,2.068595171,-12.71366501,-0.3092723191
33.42925359,2.216950178,-12.66939735,-0.4666004181
33.43925359,1.968096614,-12.39661598,-0.5186443329
33.44925359,1.523031592,-12.20459175,-0.5958128572
33.45925359,1.331605792,-12.06521034,-0.7058826685
33.46925359,0.9966106415,-11.79362488,-0.6239284873
33.47925359,0.5563312769,-11.41496086,-0.7764709592
33.48925359,0.0580259487,-10.77188969,-1.128215909
33.49925359,-0.1399801224,-9.540184021,-2.170290232
33.50925359,-0.8745766878,-8.800203323,-3.480360508
33.51925359,-1.645065546,-8.438887596,-3.978665829
33.52925359,-2.800200701,-8.481359482,-2.695514679
33.53925359,-3.824927092,-9.594022751,-0.9589236975
33.54925359,-4.868197441,-11.19003487,0.7890332937
33.55925359,-5.819942951,-11.86959648,0.680758059
33.56925359,-5.991029739,-12.68495083,0.9236295223
33.57925359,-3.510270834,-12.43669605,0.614357233
33.58925359,-1.768295884,-12.01137161,-1.325623751
33.59925359,0.5353940725,-11.61715412,0.9032905698
33.60925359,2.291127682,-11.32283688,1.58703959
33.61925359,4.902893543,-10.47876835,2.358724833
33.62925359,5.727818966,-10.46979523,1.040279627
33.63925359,5.65304327,-10.32981491,-0.6538388133
33.64925359,4.250849247,-10.35434151,-1.459023595
33.65925359,2.778067112,-9.489934921,-1.383051515
33.66925359,1.619940877,-8.957531929,-1.700100541
33.67925359,0.5575276613,-9.050253868,-2.32701993
33.68925359,-0.06460621208,-9.086744308,-2.71286273
33.69925359,-0.484546572,-9.052646637,-2.09671092
33.70925359,-1.148554921,-8.783453941,-1.59003067
33.71925359,-1.730010748,-8.264211655,-0.5162515044
33.72925359,-2.408974171,-7.468597889,-0.06819544733
33.73925359,-2.810370207,-6.952944279,0.05324030295
33.74925359,-3.131008387,-6.575476646,0.107078813
33.75925359,-3.064009428,-6.154938221,0.2153540403
33.76925359,-2.935395241,-5.924628735,0.1549352705
33.77925359,-2.787638426,-5.898906231,-0.1411765367
33.78925359,-2.601596355,-5.972485542,-0.5862415433
33.79925359,-2.338984251,-6.123233318,-0.9116654396
33.80925359,-1.842473388,-6.312864304,-1.112064362
33.81925359,-1.244866014,-6.416353703,-1.287936807
33.82925359,-0.8961120844,-6.601797581,-1.450648785
33.83925359,-0.7142575383,-7.189235687,-1.649851203
33.84925359,-0.5425725579,-8.147561073,-2.152942181
33.85925359,-0.1130608693,-9.46720314,-3.098705292
33.86925359,0.3457628787,-10.47458076,-3.452843189
33.87925359,0.9768698215,-11.6207428,-3.687339783
33.88925359,1.608574986,-12.60479164,-3.887738705
33.89925359,2.49332118,-13.4213419,-4.124029636
33.90925359,3.401995659,-13.87179089,-3.908077478
33.91925359,3.851846218,-13.69472218,-3.862015724
33.92925359,3.750749588,-12.82911873,-3.703491211
33.93925359,3.488137245,-11.65005493,-3.30927372
33.94925359,3.35413909,-10.65105152,-3.09272337
33.95925359,3.043072224,-10.08694363,-3.10947299
33.96925359,2.478366137,-9.431310654,-3.112463951
33.97925359,1.708475351,-8.687142372,-2.899502754
33.98925359,0.8051848412,-8.128418922,-2.755933523
33.99925359,0.2793620527,-8.440681458,-2.688336134
34.00925359,-0.1926222295,-10.19103146,-2.136192322
34.01925359,-0.7016952634,-11.88156128,-1.325025558
34.02925359,-1.60378933,-12.9822588,-0.6652047038
34.03925359,-2.592623234,-13.35912895,-0.2356930375
34.04925359,-3.022733212,-13.36211967,0.1555334777
34.05925359,-3.366701365,-13.2586298,0.4372883439
34.06925359,-3.361915827,-12.46600819,0.6717849374
34.07925359,-3.151945591,-11.07697392,0.5856433511
34.08925359,-3.000599623,-10.28315544,-0.08374879509
34.09925359,-2.849253654,-9.755537987,-1.042074203
34.10925359,-2.382653236,-9.218349457,-1.84606266
34.11925359,-1.785045743,-8.647661209,-2.027318954
34.12925359,-1.178465128,-8.091927528,-2.030908108
34.13925359,-0.8153542876,-7.507481098,-2.039881229
34.14925359,-0.2656033039,-6.761518478,-1.91365993
34.15925359,0.2081755698,-6.393023968,-1.785045743
34.16925359,0.8117650747,-6.592226505,-1.275972724
34.17925359,0.9990034699,-7.265805721,-0.6957131624
34.18925359,0.9397810698,-8.943174362,0.4235295951
34.19925359,0.5168496966,-11.00698376,1.318445325
34.20925359,0.1447657645,-12.28295708,1.749751568
34.21925359,-0.3320041299,-12.58804131,2.239083767
34.22925359,-0.6233302951,-11.97906876,2.758924484
34.23925359,-0.6897311211,-10.84905815,3.402593851
34.24925359,-0.5712863803,-9.488140106,3.205784082
34.25925359,-0.7591229677,-8.947361946,2.437688112
34.26925359,-0.6023930907,-8.885746956,1.801795483
34.27925359,-0.6323033571,-9.110074043,0.9002995491
34.28925359,-0.5485545993,-8.859425545,-0.1226321608
34.29925359,-0.4869394004,-8.539983749,-0.656829834
34.30925359,-0.4731806815,-8.366504669,-0.8327022791
34.31925359,-0.3870390654,-8.386244774,-0.784845829
34.32925359,-0.3433700502,-8.679366112,-0.604187727
34.33925359,-0.3774677813,-9.056235313,-0.798604548
34.34925359,-0.5832505226,-9.518648148,-1.108475089
34.35925359,-0.8416753411,-9.857233047,-1.298704505
34.36925359,-0.9613165259,-10.16710377,-1.559522152
34.37925359,-1.057029366,-10.23410225,-1.488335729
34.38925359,-1.013360381,-10.04865837,-1.338784218
34.39925359,-0.8937192559,-9.91047287,-1.241874933
34.40925359,-0.6646065116,-9.829116821,-1.158724308
34.41925359,-0.3774677813,-9.552745819,-0.9355936646
34.42925359,-0.195015043,-9.396614075,-0.6370890141
34.43925359,-0.151944235,-9.315856934,-0.5886343718
34.44925359,-0.2524427772,-9.277571678,-0.5790630579
34.45925359,-0.4199403822,-9.329615593,-0.6759724021
34.46925359,-0.5922235847,-9.439684868,-0.6963114142
34.47925359,-0.7399803996,-9.526425362,-0.6352944374
34.48925359,-0.7878368497,-9.780064583,-0.6753742099
34.49925359,-0.6496513486,-9.903294563,-0.8141579032
34.50925359,-0.4049852192,-9.966704369,-0.6173482537
34.51925359,-0.1369891018,-10.22154045,-0.3451646566
34.52925359,0.1405783296,-10.14556789,-0.2763710022
34.53925359,0.3655036688,-10.06899738,-0.2129612118
34.54925359,0.432502687,-9.71186924,0.04785645381
34.55925359,0.2943171859,-9.406784058,0.2650051117
34.56925359,-0.05982056633,-9.411569595,0.2494517565
34.57925359,-0.2895315289,-9.650253296,0.05503492057
34.58925359,-0.3708875179,-10.05464077,-0.2590230405
34.59925359,-0.337986201,-10.51286602,-0.5204389095
34.60925359,-0.1375873089,-10.80718327,-0.8039883971
34.61925359,0.1830509305,-10.94477081,-0.956530869
34.62925359,0.604187727,-11.30429268,-0.8709874153
34.63925359,0.9535398483,-11.90249825,-0.7537391186
34.64925359,1.336391449,-12.22911835,-0.5916253924
34.65925359,1.580459356,-12.28714466,-0.471386075
34.66925359,1.638485312,-12.31226921,-0.1938186288
34.67925359,1.476371527,-12.19502068,0.06999006122
34.68925359,1.084546804,-11.9090786,0.2279163599
34.69925359,0.5916253924,-11.46461105,0.2626122832
34.70925359,0.1609173268,-11.14816093,0.1818545163
34.71925359,-0.2889333367,-10.70249748,-0.03290131316
34.72925359,-0.5383850932,-10.34656525,-0.342771858
34.73925359,-0.6059823632,-10.0145607,-0.604187727
34.74925359,-0.5539384484,-9.615557671,-0.8458628058
34.75925359,-0.4929214716,-9.228518486,-1.518245935
34.76925359,-0.5527420044,-8.824131966,-2.693720102
34.77925359,-1.004387259,-8.668000221,-3.997210264
34.78925359,-2.222334146,-8.492127419,-3.215355396
34.79925359,-2.679363251,-8.609973907,-1.987239242
34.80925359,-2.289333105,-9.374481201,-0.6831508875
34.81925359,-2.172683001,-10.2275219,0.3266202807
34.82925359,-0.9834501147,-10.54098225,-0.656829834
34.83925359,-0.09750752151,-10.85683441,0.1585244983
34.84925359,1.890329838,-11.3449707,1.934597135
34.85925359,2.712264538,-12.46540928,1.451845169
34.86925359,3.487539053,-12.50548935,1.775474429
34.87925359,4.401597023,-12.29312611,2.379063845
34.88925359,4.856233597,-11.07398319,2.694916487
34.89925359,4.70787859,-9.573683739,3.03888464
34.90925359,3.837489367,-9.067601204,3.115455151
34.91925359,2.755933523,-8.859425545,2.619542599
34.92925359,1.745564103,-9.218947411,1.741974831
34.93925359,0.366700083,-9.729815483,0.6412764788
34.94925359,-0.5330012441,-9.843474388,0.3068794906
34.95925359,-0.8195417523,-9.8201437,0.3780659735
34.96925359,-0.6000002623,-9.819545746,0.2877369225
34.97925359,-0.3409772217,-9.973284721,0.4408775866
34.98925359,-0.1310070455,-10.04506969,0.4462614357
34.99925359,-0.3164508045,-10.17248726,0.9188438654
35.00925359,-0.6221339107,-9.80638504,1.259821177
35.01925359,-0.7178468108,-9.428917885,1.31425786
35.02925359,-0.9421738982,-9.161520004,1.473380566
35.03925359,-1.560120344,-8.914461136,0.8644071817
35.04925359,-1.91066885,-8.408976555,0.3487538993
35.05925359,-1.480558991,-8.125427246,0.261415869
35.06925359,-1.299900889,-8.187641144,-0.4612165689
35.07925359,-1.123430252,-8.477172852,-0.8644071817
35.08925359,-0.9661021233,-8.873184204,-1.05822587
35.09925359,-0.8560323119,-9.067601204,-1.264606714
35.10925359,-0.6502495408,-9.254839897,-1.217348576
35.11925359,-0.2099701911,-9.408578873,-1.063609719
35.12925359,0.4019941986,-9.666405678,-1.03848505
35.13925359,1.128814101,-10.00558758,-1.05224371
35.14925359,1.507478237,-10.60917759,-0.9110672474
35.15925359,1.990230203,-11.27258778,-1.138385415
35.16925359,2.334796667,-11.63210869,-0.9960124493
35.17925359,2.29651165,-11.80319595,-1.188634634
35.18925359,2.176870346,-11.81695461,-1.308874011
35.19925359,2.056631088,-11.38026428,-1.507478237
35.20925359,2.213959217,-10.69472122,-1.674975872
35.21925359,2.48195529,-9.99302578,-1.372882009
35.22925359,2.525026083,-9.415159225,-1.148554921
35.23925359,2.094317913,-8.885149002,-0.9840483069
35.24925359,1.72223413,-8.28155899,-0.3547359705
35.25925359,1.555932879,-7.998009682,0.1686939895
35.26925359,1.355534077,-7.661818027,0.7064808607
35.27925359,0.9397810698,-7.41535759,0.9840483069
35.28925359,0.3038884699,-7.215556622,1.140778184
35.29925359,-0.3990031779,-7.517052174,1.025922656
35.30925359,-1.05822587,-8.4646101,0.9314061999
35.31925359,-1.597807288,-9.753743172,1.122233868
35.32925359,-2.313261271,-11.69551849,1.571486235
35.33925359,-3.052045345,-13.65882969,2.417947292
35.34925359,-3.772883177,-15.15972805,2.779263496
35.35925359,-4.405186653,-15.51386547,1.970489502
35.36925359,-4.891527653,-15.18664742,0.1555334777
35.37925359,-5.117649555,-13.56251907,-3.200998545
35.38925359,-3.47557497,-11.20917797,-4.305285931
35.39925359,-1.747956991,-9.981060982,-3.055634499
35.40925359,-0.7950153351,-9.503094673,-2.071586132
35.41925359,0.2482553422,-8.989236832,-1.451845169
35.42925359,0.950548768,-8.361120224,-1.506880045
35.43925359,1.399203062,-7.622336388,-1.77846539
35.44925359,1.580459356,-7.085147858,-1.903490424
35.45925359,1.743171334,-6.803392887,-1.791027784
35.46925359,2.394617319,-6.798607349,-0.9840483069
35.47925359,2.877967358,-7.396214962,-0.9762716293
35.48925359,3.506083488,-8.524430275,-0.3541377485
35.49925359,3.986442566,-9.703494072,0.760917604
35.50925359,4.137190342,-10.82512951,1.822134495
35.51925359,3.239881754,-11.97009563,2.592025042
35.52925359,1.43808639,-12.1794672,2.981456995
35.53925359,0.2524427772,-11.90070343,3.323032379
35.54925359,-1.067797065,-11.21037388,2.992224693
35.55925359,-1.944168448,-10.29272652,2.357528448
35.56925359,-2.294716835,-9.296115875,2.060818434
35.57925359,-2.114058733,-8.674580574,1.495514154
35.58925359,-1.669592023,-8.449056625,1.456032634
35.59925359,-1.048056364,-8.377271652,1.540379524
35.60925359,-0.6317051649,-8.610571861,1.411167145
35.61925359,-0.3882354796,-8.581260681,1.354337573
35.62925359,-0.4791627228,-9.090931892,0.9678967595
35.63925359,-0.5718846321,-9.534799576,-0.03110669367
35.64925359,-0.7639086246,-9.646066666,-0.5784648657
35.65925359,-0.9828519225,-9.707083702,-0.1202393398
35.66925359,-1.733001828,-10.03968525,0.1860419661
35.67925359,-2.388635159,-9.717850685,-0.03469592705
35.68925359,-2.708675146,-9.628718376,0.1704886109
35.69925359,-2.679961443,-9.628718376,0.1800599098
35.70925359,-2.373680115,-9.628718376,0.2099701911
35.71925359,-2.106282234,-9.643074989,0.2255235314
35.72925359,-1.670788407,-9.816555023,0.4462614357
35.73925359,-1.364507079,-9.897911072,0.5521438122
35.74925359,-1.177866936,-9.783653259,0.6592226624
35.75925359,-1.101296663,-9.736394882,0.7268198729
35.76925359,-1.024128079,-9.57906723,0.8859425783
35.77925359,-0.9667003751,-9.437292099,1.155135155
35.78925359,-0.956530869,-9.400203705,1.361516118
35.79925359,-0.8279166222,-9.538389206,1.231705427
35.80925359,-0.760917604,-9.661619186,1.111466169
35.81925359,-0.7806583643,-9.851848602,0.8470591903
35.82925359,-0.775872767,-10.02233791,0.5491527915
35.83925359,-0.7764709592,-10.27418232,0.2937189937
35.84925359,-0.6095715761,-10.52124119,0.09152546525
35.85925359,-0.1405783296,-10.49791145,0.1944168359
35.86925359,0.4528416991,-10.2652092,0.561715126
35.87925359,1.036690354,-9.936196327,0.8536394835
35.88925359,1.351944804,-9.544371605,1.000798106
35.89925359,1.318445325,-9.333803177,0.9302098155
35.90925359,0.9164510965,-9.533005714,0.6496513486
35.91925359,0.456430912,-9.984052658,0.02273181453
35.92925359,0.111864455,-10.33041382,-0.5126622319
35.93925359,-0.04127619043,-10.53081226,-0.6436693072
35.94925359,0.04965107143,-10.61815071,-0.433100909
35.95925359,0.2464607358,-10.67258739,-0.1645065546
35.96925359,0.5096712112,-10.71266651,0.171086818
35.97925359,0.8069794178,-10.91545868,0.4773681164
35.98925359,1.247856975,-11.31924725,0.8835497499
35.99925359,1.492523074,-11.91506004,1.268794179
36.00925359,1.531406522,-12.3996067,1.433300734
36.01925359,1.26341033,-12.50848007,1.240080357
36.02925359,0.9469595551,-12.4301157,0.9140582681
36.03925359,0.5730810165,-12.31226921,0.4103690982
36.04925359,0.2799602449,-12.078969,-0.2356930375
36.05925359,-0.04127619043,-11.85523987,-0.8721838593
36.06925359,-0.228514567,-11.72243786,-1.399203062
36.07925359,-0.3541377485,-11.46102238,-1.957927108
36.08925359,-0.2542374134,-11.13320541,-2.237887383
36.09925359,-0.1447657645,-10.79821014,-2.283350945
36.10925359,-0.1016949639,-10.52483082,-2.362912416
36.11925359,-0.04007977992,-10.24128056,-2.485544443
36.12925359,-0.06460621208,-9.85244751,-2.688934565
36.13925359,-0.2841476798,-9.466604233,-2.428714991
36.14925359,-0.7896314859,-9.113663673,-1.542772412
36.15925359,-1.190429211,-8.888139725,-0.9631111026
36.16925359,-1.710269928,-8.693124771,-0.05443671346
36.17925359,-1.796411633,-8.727222443,-0.002392822644
36.18925359,-1.173679471,-8.429315567,0.6197410822
36.19925359,-0.8201399446,-8.79960537,0.2117647976
36.20925359,0.5623133183,-8.977272034,0.4648058116
36.21925359,1.817348838,-10.05523872,1.573879123
36.22925359,2.024327993,-11.87617683,1.97527504
36.23925359,2.023131609,-12.39302635,1.219741344
36.24925359,2.510669231,-11.57468128,1.332203984
36.25925359,2.429911375,-10.58285618,1.884347796
36.26925359,1.837089539,-9.722636223,1.935195327
36.27925359,1.32263267,-9.241679192,0.7298108935
36.28925359,1.809572101,-9.003593445,0.2494517565
36.29925359,2.221137524,-9.203393936,0.1345962733
36.30925359,1.771885157,-9.597013474,0.2739782035
36.31925359,1.149153113,-10.3346014,-0.498903513
36.32925359,1.076171994,-10.63011456,-1.420738459
36.33925359,0.6789634228,-10.67258739,-1.54217422
36.34925359,-0.2787638307,-10.6540432,-2.374278307
36.35925359,-0.2171486616,-10.08814049,-2.551945448
36.36925359,0.02033899166,-9.697511673,-0.7531409264
36.37925359,0.002392822644,-9.431908607,0.3738785386
36.38925359,-0.01674975827,-8.813364029,0.2147558331
36.39925359,-0.3577269912,-8.269595146,-0.2907279432
36.40925359,-0.2524427772,-7.868797302,-0.1202393398
36.41925359,0.03409772366,-7.5421772,-0.2315055877
36.42925359,0.07716853172,-7.464410305,-0.4031906128
36.43925359,0.2015953064,-7.407580853,-0.3451646566
36.44925359,0.1920240223,-7.306483746,-0.3493520916
36.45925359,0.1920240223,-7.306483746,-0.3493520916
36.46925359,-0.2147558331,-7.363313675,-0.5282155871
36.47925359,-0.7028916478,-7.5924263,-0.6753742099
36.48925359,-1.143171072,-7.840681553,-0.8847461939
36.49925359,-1.497308731,-8.153543472,-1.352542996
36.50925359,-1.597807288,-8.412566185,-1.287338614
36.51925359,-1.320838094,-8.625527382,-1.646860242
36.52925359,-0.9296116233,-9.177073479,-2.175673962
36.53925359,-0.1842473447,-9.799804688,-2.727219582
36.54925359,0.433100909,-10.48774147,-2.849253654
36.55925359,0.9308080077,-10.97109222,-2.778665304
36.56925359,1.413560033,-11.51486111,-2.961716175
36.57925359,2.398206472,-11.74756241,-3.117847919
36.58925359,3.747160196,-11.80977631,-2.964707375
36.59925359,4.47397995,-11.7708931,-3.019144058
36.60925359,4.392624378,-11.49392319,-2.89292264
36.61925359,3.527618885,-10.88016415,-2.423331022
36.62925359,2.586043119,-10.06002426,-2.048256159
36.63925359,1.97826612,-9.237491608,-2.040479422
36.64925359,1.638485312,-8.868997574,-2.063211441
36.65925359,1.002592683,-8.76072216,-1.90229404
36.66925359,0.06640082598,-9.537791252,-1.73360002
36.67925359,-0.8075776696,-11.2008028,-1.5224334
36.68925359,-1.34237349,-12.45165062,-1.254437327
36.69925359,-1.579861164,-13.43689537,-0.6777670383
36.70925359,-1.871187329,-13.6534462,-0.5078766346
36.71925359,-2.154138565,-13.22632694,-0.7597211599
36.72925359,-2.169093609,-12.57428265,-0.8949156404
36.73925359,-2.082952023,-11.4699955,-0.7674978375
36.74925359,-1.825723648,-9.875179291,-0.8380861282
36.75925359,-1.348355532,-8.668000221,-0.9864411354
36.76925359,-0.927816987,-8.011768341,-0.9756734371
36.77925359,-0.5982056856,-7.705487251,-0.9296116233
36.78925359,-0.3062812984,-7.442276478,-0.8883354068
36.79925359,0.104685992,-7.255636692,-0.8955138922
36.80925359,0.5778666735,-7.287341595,-1.085145116
