Time (s),Gyroscope x (rad/s),Gyroscope y (rad/s),Gyroscope z (rad/s)
13.28565148,-0.02000583708,-2.94895196,0.1727221459
13.29565148,-0.04596760869,-3.280040979,0.125838235
13.30565148,-0.06490442902,-3.568216562,0.1084285825
13.31565148,0.002290744567,-3.54149127,0.04993823543
13.32565148,0.09147707373,-3.275154114,-0.03665191308
13.33565148,0.2278527319,-2.72613883,-0.1695151031
13.34565148,0.3564398587,-2.138333797,-0.2434297949
13.35565148,0.4819726646,-1.718669415,-0.2719877362
13.36565148,0.5784893632,-1.561829686,-0.287106663
13.37565148,0.681420207,-1.545947194,-0.2933680415
13.38565148,0.7115052938,-1.600619674,-0.322995007
13.39565148,0.6739370823,-1.646129131,-0.3744603992
13.40565148,0.6459900141,-1.681712031,-0.4039346576
13.41565148,0.6707300544,-1.699732542,-0.4297437072
13.42565148,0.7295258045,-1.577559471,-0.4560109079
13.43565148,0.7660250068,-1.427744746,-0.4271475375
13.44565148,0.7560984492,-1.295797944,-0.3605632186
13.45565148,0.6956228018,-1.26250577,-0.3003929853
13.46565148,0.5488623977,-1.31610918,-0.2199114859
13.47565148,0.3611740768,-1.437518597,-0.1469130963
13.48565148,0.2101376504,-1.543656468,-0.1069014147
13.49565148,0.1368338168,-1.58382082,-0.07528914511
13.50565148,0.07040221989,-1.557859063,-0.02382374369
13.51565148,0.02183843218,-1.502270341,0.03390302137
13.52565148,-0.009773843922,-1.410946012,0.07116580009
13.53565148,-0.03176499158,-1.303433776,0.08643743396
13.54565148,-0.03283400834,-1.209055066,0.08689557761
13.55565148,-0.005955935922,-1.077566266,0.09239336848
13.56565148,0.03711006418,-0.9816604257,0.1185078546
13.57565148,0.09193521738,-0.9332493544,0.1443169117
13.58565148,0.12996158,-0.9367618561,0.1722639948
13.59565148,0.1592831165,-0.9108000994,0.2017382532
13.60565148,0.1637118906,-0.8765916228,0.2287690341
13.61565148,0.1522581577,-0.8362745047,0.2386955917
13.62565148,0.1324050426,-0.8060367107,0.2573269904
13.63565148,0.116217114,-0.7904596329,0.2817615867
13.64565148,0.1449277848,-0.8329147696,0.2777909636
13.65565148,0.2422080636,-0.8671231866,0.2249511331
13.66565148,0.4031710625,-0.7680103183,0.1348485053
13.67565148,0.5261076689,-0.668286562,0.07666359097
13.68565148,0.6046038866,-0.550542295,0.01970040426
13.69565148,0.5734497309,-0.3950771093,-0.01847867295
13.70565148,0.4349360466,-0.3058907688,-0.01282817032
13.71565148,0.2521346211,-0.3130684495,0.04612032697
13.72565148,-0.06551529467,-0.3404046595,0.1295034289
13.73565148,-0.4030183554,-0.4631885588,0.1550070494
13.74565148,-0.6850853562,-0.6157521605,0.1241583601
13.75565148,-0.8429940343,-0.669508338,0.007024950348
13.76565148,-0.9060658813,-0.6348416805,-0.1710422635
13.77565148,-0.9729556441,-0.5810855627,-0.29138273
13.78565148,-1.036332846,-0.5186246037,-0.3849978149
13.79565148,-1.069930434,-0.487775892,-0.4946481287
13.80565148,-1.085049391,-0.4593706727,-0.5749769211
13.81565148,-1.129642606,-0.4337143302,-0.6493497491
13.82565148,-1.231351614,-0.4502076805,-0.7347181439
13.83565148,-1.352608323,-0.4865541756,-0.8359690905
13.84565148,-1.497077942,-0.4080579877,-0.9121745229
13.85565148,-1.793500304,-0.2611449063,-1.021977544
13.86565148,-2.100307465,-0.1600466967,-1.089325428
13.87565148,-2.282497883,-0.228310883,-1.078329921
13.88565148,-2.301892996,-0.3671300113,-1.059545755
13.89565148,-2.193006277,-0.5534439087,-1.081536889
13.90565148,-1.991115212,-0.9341656566,-0.9764680862
13.91565148,-1.740355134,-1.421636105,-1.002735257
13.92565148,-1.373530507,-1.625359654,-1.133765936
13.93565148,-1.145677805,-1.464702129,-1.130864263
13.94565148,-0.8506298661,-1.630704761,-1.32282865
13.95565148,-0.6632469296,-1.37032342,-1.470658064
13.96565148,-0.4831944108,-0.9859365225,-1.448056102
13.97565148,-0.2273945808,-0.9071348906,-1.439656615
13.98565148,-0.00320704258,-0.9841039181,-1.484402537
13.99565148,0.2041817009,-0.9821186066,-1.649488926
14.00565148,0.3584251702,-0.9535606503,-1.840078831
14.01565148,0.5178610086,-0.9505063295,-2.081981421
14.02565148,0.6084218025,-0.9193521738,-2.198045969
14.03565148,0.6565274,-1.16705811,-2.106568813
14.04565148,0.762970686,-1.577254057,-1.972331166
14.05565148,0.7980954647,-2.093435287,-1.900554538
14.06565148,0.8703302741,-2.301129341,-1.887268186
14.07565148,0.9224064946,-2.346486092,-1.786170006
14.08565148,0.9237809777,-2.342515469,-1.617723942
14.09565148,0.968221426,-2.248442173,-1.465923905
14.10565148,1.048092008,-2.122145891,-1.309084177
14.11565148,1.093448758,-2.002263546,-1.174235702
14.12565148,1.119257808,-1.881617665,-1.008843899
14.13565148,1.13559854,-1.790446043,-0.8374962807
14.14565148,1.105818868,-1.750128984,-0.6479753256
14.15565148,1.040914416,-1.75913918,-0.4807509482
14.16565148,0.9237809777,-1.810604572,-0.275652945
14.17565148,0.7962628603,-1.816713214,-0.08139779419
14.18565148,0.6873761415,-1.731955647,0.0853684172
14.19565148,0.5745187402,-1.499826908,0.2368630022
14.20565148,0.4908302128,-1.251204729,0.326202035
14.21565148,0.4228714705,-0.9876163602,0.4120286107
14.22565148,0.3669773042,-0.8093964458,0.460745126
14.23565148,0.3123048544,-0.7402159572,0.4636467099
14.24565148,0.2725986242,-0.7134906054,0.4418082833
14.25565148,0.2449569702,-0.653778553,0.4300491214
14.26565148,0.2109012306,-0.5743660331,0.4097378552
14.27565148,0.1687515229,-0.4211915731,0.3495676219
14.28565148,0.1488984078,-0.291077286,0.2770273983
14.29565148,0.1291979998,-0.1791362315,0.1788308024
14.30565148,0.1404990107,-0.2081523389,0.1163698286
14.31565148,0.1942551434,-0.2991712391,0.08032877743
14.32565148,0.2866485119,-0.3336851299,0.07391469181
14.33565148,0.362090379,-0.259465009,0.09132435173
14.34565148,0.4312708676,-0.07009678334,0.1313360333
14.35565148,0.479834646,0.09330966324,0.1699732542
14.36565148,0.51572299,0.1805106848,0.2167044431
14.37565148,0.5239696503,0.2157881409,0.2693915665
14.38565148,0.5332853794,0.2669481039,0.3428481221
14.39565148,0.5506950021,0.3623957932,0.4239404798
14.40565148,0.5797111392,0.4161519408,0.5181664228
14.41565148,0.6273586154,0.3326161206,0.6287330389
14.42565148,0.6475171447,0.1646281779,0.6779077053
14.43565148,0.6520986557,-0.02061670274,0.6963863969
14.44565148,0.6382014751,-0.1052215397,0.6837109327
14.45565148,0.5925393105,-0.08704829961,0.6241515875
14.46565148,0.5598580241,-0.022143865,0.5671883821
14.47565148,0.5366451144,0.07864890248,0.4932736754
14.48565148,0.5215262175,0.1142318025,0.4470006526
14.49565148,0.4989241958,0.03817907721,0.4100432992
14.50565148,0.4085161388,-0.1087340117,0.4143193662
14.51565148,0.2776382565,-0.2698497176,0.4576907754
14.52565148,0.08185594529,-0.5482515693,0.5334380865
14.53565148,-0.06627888232,-0.8052731156,0.6152940392
14.54565148,-0.1579086632,-0.9576839805,0.7110471725
14.55565148,-0.1553124934,-0.8501716852,0.7874053121
14.56565148,-0.1107193232,-0.6540839672,0.8761335015
14.57565148,-0.03481931984,-0.4132503271,0.935998261
14.58565148,0.08781187981,-0.1728748679,0.9492846131
14.59565148,0.1835650057,-0.05894849449,0.9253081083
14.60565148,0.2751947939,0.0971275717,0.8271115422
14.61565148,0.315053761,0.1421788931,0.7319692969
14.62565148,0.3788891733,0.2503020465,0.6055201888
14.63565148,0.4624249935,0.3452915847,0.4386012554
14.64565148,0.5334380865,0.3663664162,0.322689563
14.65565148,0.6517932415,0.3132211566,0.1915062517
14.66565148,0.7626652718,0.263741076,0.05925392732
14.67565148,0.8463537693,0.2515237629,-0.005650503561
14.68565148,0.9253081083,0.3260493279,-0.01634064503
14.69565148,1.010676503,0.4839579761,-0.02061670274
14.70565148,1.082605958,0.6527095437,-0.03329215571
14.71565148,1.076497316,0.7548767328,-0.1033889428
14.72565148,1.016937971,0.6992880106,-0.1476766765
14.73565148,0.9048441648,0.6099489331,-0.1685988009
14.74565148,0.7683157325,0.5273294449,-0.1383609772
14.75565148,0.6160575747,0.4137084782,-0.07024950534
14.76565148,0.4833471179,0.3210096955,-0.002290744567
14.77565148,0.4108068645,0.3274237812,0.04428773001
14.78565148,0.3758348525,0.397673279,0.1204931661
14.79565148,0.3654501438,0.4560109079,0.1988366395
14.80565148,0.3636175394,0.5010622144,0.2504547536
14.81565148,0.3532328308,0.5619960427,0.2800817192
14.82565148,0.3364340365,0.6375905871,0.3294090927
14.83565148,0.3254384696,0.633467257,0.3915646076
14.84565148,0.2977968156,0.5874996781,0.4439463317
14.85565148,0.2631302178,0.5035057068,0.483805269
14.86565148,0.248011291,0.428521961,0.4918992519
14.87565148,0.2732094824,0.3602577746,0.4720461071
14.88565148,0.3362813294,0.3280346394,0.4277583957
14.89565148,0.4208861589,0.3342960179,0.3544545472
14.90565148,0.4720461071,0.3622430861,0.2861903608
14.91565148,0.4923573732,0.409432441,0.2179261744
14.92565148,0.4589125216,0.4302018583,0.1791362315
14.93565148,0.4085161388,0.4332561791,0.1828014255
14.94565148,0.3733913898,0.3996585906,0.204639852
14.95565148,0.3454442918,0.366061002,0.2264782935
14.96565148,0.2952006161,0.3568980098,0.2461786866
14.97565148,0.1737911552,0.3492622077,0.2573269904
14.98565148,0.01359175146,0.3979786932,0.2211332172
14.99565148,-0.09834930301,0.4169155359,0.1324050426
15.00565148,-0.2290744632,0.4628831446,-0.01618792862
15.01565148,-0.3836233616,0.543211937,-0.2156354338
15.02565148,-0.5403103232,0.5977316499,-0.4250094891
15.03565148,-0.6777549982,0.5896376967,-0.5627595782
15.04565148,-0.8239045143,0.5910121202,-0.6711881757
15.05565148,-0.9271407127,0.5928447247,-0.7502952218
15.06565148,-1.08611846,0.6455318332,-0.8327620625
15.07565148,-1.357189894,0.7238753438,-0.9344711304
15.08565148,-1.579239368,0.8113817573,-1.015410781
15.09565148,-1.81946218,0.8866708875,-1.131780624
15.10565148,-2.119396925,1.019992232,-1.234405994
15.11565148,-2.411543369,1.117730737,-1.312596679
15.12565148,-2.585639954,1.101390004,-1.369865298
15.13565148,-2.675742388,1.03297317,-1.363909364
15.14565148,-2.550973177,0.9590584636,-1.280373573
15.15565148,-2.233170509,0.7652614117,-1.070694089
15.16565148,-1.764331579,0.4543310404,-0.8863654733
15.17565148,-1.270294309,0.1982257664,-0.8043568134
15.18565148,-0.8329147696,0.1744020283,-0.7124215961
15.19565148,-0.4529565871,0.4576907754,-0.6273586154
15.20565148,-0.2144137025,0.8724682927,-0.8819366693
15.21565148,-0.1980730593,1.374752283,-1.230893493
15.22565148,-0.2064724565,1.682780981,-1.536784291
15.23565148,-0.4080579877,1.358411551,-1.573588848
15.24565148,-0.5479460955,0.9036223888,-1.426828504
15.25565148,-0.542753756,0.5416847467,-1.362993121
15.26565148,-0.5923865438,0.04703662544,-1.137125611
15.27565148,-0.5221370459,-0.6620252132,-1.149648428
15.28565148,-0.4109596014,-1.053284407,-1.114065528
15.29565148,-0.3672827184,-1.351081252,-1.035263896
15.30565148,-0.295353353,-1.521207213,-0.9618073106
15.31565148,-0.2145664245,-1.714393258,-0.8738427162
15.32565148,-0.1342376322,-1.762193561,-0.7325801253
15.33565148,-0.06780604273,-1.645976424,-0.5429064631
15.34565148,-0.01221730467,-1.447597861,-0.3953825235
15.35565148,0.06597344577,-1.162171125,-0.208457768
15.36565148,0.1488984078,-0.8828529716,-0.01420261711
15.37565148,0.2251038402,-0.6501133442,0.1724167168
15.38565148,0.2825251818,-0.5007568002,0.3391829133
15.39565148,0.3263547719,-0.4531092942,0.4529565871
15.40565148,0.3866777122,-0.460439682,0.574824214
15.41565148,0.4586070776,-0.5227479339,0.6708827615
15.42565148,0.5369505286,-0.6056728959,0.7519751191
15.43565148,0.5916230083,-0.6740897894,0.8101600409
15.44565148,0.6323982477,-0.8014551997,0.8558222055
15.45565148,0.6126978397,-0.916908741,0.8539896011
15.46565148,0.5264131427,-0.8807149529,0.8129089475
15.47565148,0.4147774875,-0.6742424965,0.7092145681
15.48565148,0.2443460971,-0.2493857294,0.476169467
15.49565148,0.08093964309,0.1954768747,0.1870774776
15.50565148,-0.02580905706,0.5045747161,-0.05894849449
15.51565148,-0.03817907721,0.5138903856,-0.2176207453
15.52565148,0.002290744567,0.389732033,-0.2890919745
15.53565148,0.02748893574,0.2159408629,-0.3011565804
15.54565148,0.03054326214,0.05253441259,-0.236099422
15.55565148,0.05818491429,-0.1096503139,-0.1123992056
15.56565148,0.07803803682,-0.224187538,0.02122756653
15.57565148,0.09773843735,-0.3316998184,0.2159408629
15.58565148,0.1348485053,-0.3530801237,0.3830125034
15.59565148,0.1991420686,-0.3862195611,0.51572299
15.60565148,0.3022255898,-0.3662137091,0.6548475623
15.61565148,0.3758348525,-0.2509129047,0.7713701129
15.62565148,0.369726181,0.09422596544,0.8634580374
15.63565148,0.3006984293,0.456469059,0.8509352803
15.64565148,0.2489275932,0.6979135275,0.7582364678
15.65565148,0.2197587788,0.7790058851,0.6843217611
15.66565148,0.2118175179,0.7166976333,0.6327036619
15.67565148,0.2309070677,0.5389358401,0.6550002694
15.68565148,0.2631302178,0.2852740586,0.7145596147
15.69565148,0.2805398703,0.05467243865,0.7644978762
15.70565148,0.2464841306,-0.3092505336,0.8665123582
15.71565148,0.113926366,-0.7599163651,0.9595165849
15.72565148,-0.0109955743,-1.135293007,0.9699012637
15.73565148,-0.08109235764,-1.241125464,0.9181304574
15.74565148,-0.07712173462,-1.152549982,0.8637634516
15.75565148,0.01175915636,-0.9818131924,0.7619016767
15.76565148,0.1750128865,-0.7489207983,0.6603453159
15.77565148,0.3492622077,-0.5199990273,0.629496634
15.78565148,0.5067127347,-0.3246748745,0.6278167367
15.79565148,0.7276932001,0.0140499007,0.5853615999
15.80565148,0.897208333,0.4549418986,0.5508477092
15.81565148,0.9863946438,0.7197519541,0.5056437254
15.82565148,1.088867307,0.7741189599,0.4312708676
15.83565148,1.153924465,0.6574437022,0.3659082949
15.84565148,1.222035885,0.4885394871,0.2306016237
15.85565148,1.234711409,0.4476115108,0.1131627858
15.86565148,1.207222462,0.491746515,0.06459899992
15.87565148,1.193325281,0.5138903856,0.03787364438
15.88565148,1.151786447,0.6142250299,-0.02504547499
15.89565148,1.056185961,0.6982190013,-0.0975857228
15.90565148,0.8999572396,0.6192646623,-0.1026253626
15.91565148,0.8006916046,0.6047565937,-0.1221730486
15.92565148,0.6902777553,0.5888741016,-0.1171334088
15.93565148,0.5697845817,0.5001459122,-0.07712173462
15.94565148,0.4457789063,0.3892738819,-0.009162978269
15.95565148,0.3370448947,0.3385720551,0.07254024595
15.96565148,0.2793181241,0.3462078869,0.1411098689
15.97565148,0.2313652188,0.3575088978,0.2193006277
15.98565148,0.2118175179,0.3495676219,0.295047909
15.99565148,0.224187538,0.3468187451,0.3596469164
16.00565148,0.2388483137,0.3614795208,0.4086688459
16.01565148,0.2521346211,0.3820962012,0.4563163519
16.02565148,0.2486221492,0.3733913898,0.4879286289
16.03565148,0.2270891517,0.3129157126,0.507170856
16.04565148,0.1873829067,0.2426662147,0.4850270152
16.05565148,0.1539380401,0.1627955884,0.4613559842
16.06565148,0.1241583601,0.06704246253,0.4169155359
16.07565148,0.1114829108,-0.008857546374,0.3726277947
16.08565148,0.1145372316,-0.06734789163,0.3222314119
16.09565148,0.1247692257,-0.1111774743,0.2915354371
16.10565148,0.1227839142,-0.1539380401,0.2582432926
16.11565148,0.1302670091,-0.1647808999,0.2472477108
16.12565148,0.1514945775,-0.1976149082,0.2422080636
16.13565148,0.1800525337,-0.2341141105,0.2382374406
16.14565148,0.224492982,-0.2495384514,0.2270891517
16.15565148,0.2437352389,-0.2136501223,0.2247984111
16.16565148,0.220216915,-0.09224065393,0.1632537395
16.17565148,0.1951714456,0.06490442902,0.07131851465
16.18565148,0.1580613852,0.2035708427,-0.02183843218
16.19565148,0.03375030309,0.3281873465,-0.1820378453
16.20565148,-0.1620320082,0.3758348525,-0.3353650272
16.21565148,-0.4024074674,0.3468187451,-0.4437935948
16.22565148,-0.5778785348,0.3219259977,-0.5155702829
16.23565148,-0.7254024744,0.3355177343,-0.5885686874
16.24565148,-0.8694139719,0.3672827184,-0.6479753256
16.25565148,-1.085507512,0.4793764949,-0.727540493
16.26565148,-1.355815411,0.7185302377,-0.829554975
16.27565148,-1.626428723,0.9758572578,-0.9130908251
16.28565148,-2.056325197,1.325119376,-1.096045017
16.29565148,-2.424829483,1.329089999,-1.218676209
16.30565148,-2.574033499,1.05053556,-1.23822391
16.31565148,-2.511725187,0.7434229851,-1.222952247
16.32565148,-2.303267479,0.2043344229,-1.088256478
16.33565148,-1.978592515,-0.3950771093,-0.9040805697
16.34565148,-1.53892231,-0.6165157557,-0.7851145267
16.35565148,-1.168279767,-0.6067419052,-0.6867652535
16.36565148,-0.8271115422,-0.4706716835,-0.6621779203
16.37565148,-0.4891503453,-0.1724167168,-0.7111998796
16.38565148,-0.2518292069,0.3561344445,-0.9443976879
16.39565148,-0.1563815027,1.157131433,-1.267545342
16.40565148,-0.1488984078,1.472185254,-1.45019412
16.41565148,-0.2220495194,1.193325281,-1.51983273
16.42565148,-0.2133446932,0.7382306457,-1.449125051
16.43565148,-0.04016438872,0.3895792961,-1.446376204
16.44565148,0.0736092627,-0.0201585535,-1.388954878
16.45565148,0.1884519309,-0.5232060552,-1.331991673
16.46565148,0.25167647,-1.032667756,-1.301906586
16.47565148,0.1898263693,-1.556026459,-1.228908181
16.48565148,0.1699732542,-1.867873192,-1.173166752
16.49565148,0.224492982,-1.915520668,-1.101542711
16.50565148,0.2539672256,-1.896736622,-0.8842274547
16.51565148,0.279165417,-1.827861547,-0.6737843752
16.52565148,0.3211624026,-1.725388885,-0.4889976382
16.53565148,0.354149133,-1.599703312,-0.3321579695
16.54565148,0.4092797041,-1.348790407,-0.1331686229
16.55565148,0.4321871698,-1.068861485,0.05879577994
16.56565148,0.4068362415,-0.8752171993,0.2441933751
16.57565148,0.3802636266,-0.7916813493,0.3594942093
16.58565148,0.3573561609,-0.7177666426,0.4709770977
16.59565148,0.3607159257,-0.6692028642,0.5737552047
16.60565148,0.3862195611,-0.648586154,0.6568328738
16.61565148,0.4352414906,-0.6360634565,0.7142542005
16.62565148,0.4867068827,-0.6258314252,0.7397578359
16.63565148,0.5508477092,-0.6472117305,0.7371616364
16.64565148,0.5920811296,-0.7141014934,0.7208209634
16.65565148,0.5302310586,-0.7880161405,0.6753115058
16.66565148,0.3856086731,-0.7035640478,0.6235406995
16.67565148,0.1388191283,-0.38576141,0.5170974135
16.68565148,-0.06704246253,0.009468411095,0.2643519342
16.69565148,-0.1061378345,0.09208793938,-0.1391245574
16.70565148,-0.02260201424,0.05115996301,-0.5400048494
16.71565148,0.04550946131,-0.01221730467,-0.6869179606
16.72565148,0.1638645977,-0.04291328415,-0.6592763066
16.73565148,0.2359467,0.113926366,-0.5047274232
16.74565148,0.2141082734,0.3292563558,-0.2483167201
16.75565148,0.1678352207,0.4097378552,-0.03054326214
16.76565148,0.1255328059,0.3744603992,0.2684752643
16.77565148,0.1711949855,0.2628247738,0.5937610269
16.78565148,0.2490803003,0.1088867337,0.866206944
16.79565148,0.3346014321,-0.06276640296,1.047023058
16.80565148,0.4439463317,-0.2915354371,1.160338521
16.81565148,0.5064072609,-0.3911064863,1.108567715
16.82565148,0.5563455224,-0.3627012372,0.959669292
16.83565148,0.6417139173,-0.3228422701,0.7887797356
16.84565148,0.6921103001,-0.3243694305,0.7191411257
16.85565148,0.7420485616,-0.4109596014,0.7637342811
16.86565148,0.7764097452,-0.5056437254,0.8584184051
16.87565148,0.7687739134,-0.4795292318,0.995252192
16.88565148,0.6948592067,-0.4466952085,1.123686671
16.89565148,0.5467243791,-0.4821254015,1.247081399
16.90565148,0.3202461004,-0.7596109509,1.307098866
16.91565148,0.05558873713,-1.15575707,1.262658477
16.92565148,-0.1175915599,-1.28159523,1.046259403
16.93565148,-0.2058615834,-1.194241524,0.822224617
16.94565148,-0.2626720667,-1.057560444,0.6105598211
16.95565148,-0.1774563491,-0.8927795291,0.4514294267
16.96565148,-0.01496619824,-0.8168795705,0.3758348525
16.97565148,0.1287398487,-0.7107416987,0.31871894
16.98565148,0.3170390725,-0.412792176,0.2309070677
16.99565148,0.5184718966,0.01191187184,0.102319926
17.00565148,0.6163630486,0.2648100853,0.02779436857
17.01565148,0.6772968173,0.4276056588,-0.0423024185
17.02565148,0.7469354868,0.681420207,-0.1130100712
17.03565148,0.8013024926,0.7544185519,-0.1420261711
17.04565148,0.8849910498,0.7383833528,-0.1802052408
17.05565148,0.9468411207,0.6974554062,-0.1780672222
17.06565148,0.9607383013,0.6508769393,-0.1673770845
17.07565148,0.9272934198,0.6826419234,-0.1915062517
17.08565148,0.8668177724,0.705091238,-0.1779145002
17.09565148,0.7997753024,0.5497786999,-0.1638645977
17.10565148,0.755793035,0.4218024611,-0.1522581577
17.11565148,0.6501133442,0.208305046,-0.1056796908
17.12565148,0.4889976382,0.005039638374,-0.03084869497
17.13565148,0.322995007,-0.07696902007,0.04596760869
17.14565148,0.2138028294,0.03787364438,0.129808858
17.15565148,0.1446223408,0.08307767659,0.2351831198
17.16565148,0.06704246253,0.1050688252,0.3013092875
17.17565148,0.01145372353,0.2539672256,0.3242167234
17.18565148,-0.01038470957,0.4509712756,0.3497203588
17.19565148,0.003817907767,0.5083925724,0.4024074674
17.20565148,0.03222314268,0.4970915914,0.4975497425
17.21565148,0.06826419383,0.4602869749,0.5986479521
17.22565148,0.1168279797,0.4075998366,0.6788240075
17.23565148,0.145385921,0.3819434941,0.7214318514
17.24565148,0.1766927689,0.3281873465,0.7502952218
17.25565148,0.204945296,0.2107485086,0.7594582438
17.26565148,0.248164013,0.07895433158,0.7330383062
17.27565148,0.3152064681,0.005192354787,0.6837109327
17.28565148,0.3845396638,-0.05375614017,0.6197227836
17.29565148,0.4616613984,-0.1540907621,0.5299255848
17.30565148,0.5152648091,-0.2339613885,0.4317290187
17.31565148,0.5326744914,-0.2600758672,0.3291036487
17.32565148,0.5213735104,-0.243887946,0.2461786866
17.33565148,0.4923573732,-0.1774563491,0.1501201391
17.34565148,0.4460843503,-0.1015563458,0.07864890248
17.35565148,0.370337069,-0.03100141138,0.02290744707
17.36565148,0.2528982162,0.04260785133,-0.002138028387
17.37565148,0.184939459,0.08857546002,-0.02977968007
17.38565148,0.1438587606,0.1386664063,-0.07712173462
17.39565148,0.05375614017,0.1724167168,-0.1475239545
17.40565148,-0.09071348608,0.2388483137,-0.2495384514
17.41565148,-0.2364048511,0.3075706363,-0.3220787048
17.42565148,-0.4740314186,0.3691153228,-0.4080579877
17.43565148,-0.7289149761,0.4343251884,-0.519540906
17.44565148,-0.9555459619,0.4802927971,-0.6362161636
17.45565148,-1.114065528,0.4960225821,-0.707840085
17.46565148,-1.339169383,0.5332853794,-0.8013024926
17.47565148,-1.643991113,0.6594290137,-0.9269880056
17.48565148,-1.945453048,0.9411906004,-1.049466491
17.49565148,-2.256230831,1.292590857,-1.148426652
17.50565148,-2.494162798,1.367421865,-1.20370996
17.51565148,-2.649933338,1.237307549,-1.253037333
17.52565148,-2.594039202,1.067639709,-1.26250577
17.53565148,-2.316553831,0.9615018964,-1.244027019
17.54565148,-2.031890631,0.8732318878,-1.142470717
17.55565148,-1.771967411,0.3524692357,-0.8894197941
17.56565148,-1.387427688,-0.2380847335,-0.8480336666
17.57565148,-1.005331516,-0.3604104817,-0.8029823899
17.58565148,-0.6789767146,-0.3371976018,-0.8034405112
17.59565148,-0.3631593883,-0.2652682364,-0.9610437751
17.60565148,-0.1322523206,0.04535674304,-1.241736293
17.61565148,-0.04657847434,0.3982841372,-1.48424983
17.62565148,-0.0545197241,0.4560109079,-1.524108768
17.63565148,-0.06627888232,0.2973386645,-1.459051609
17.64565148,-0.03527746722,0.037415497,-1.392161846
17.65565148,-0.02168571576,-0.3023782969,-1.330464482
17.66565148,0.1389718503,-0.6279694438,-1.319163442
17.67565148,0.1843285859,-1.0726794,-1.288620234
17.68565148,0.2892446816,-1.685682654,-1.294576168
17.69565148,0.3610213697,-2.184148788,-1.252121091
17.70565148,0.4010330439,-2.589915991,-1.170112371
17.71565148,0.4260784984,-2.73133111,-1.036638379
17.72565148,0.4211915731,-2.730873108,-0.9109528065
17.73565148,0.4508185387,-2.614045143,-0.7089090943
17.74565148,0.5384777188,-2.431549072,-0.5114469528
17.75565148,0.649197042,-2.203238249,-0.3237585723
17.76565148,0.7319692969,-2.019215107,-0.1824959964
17.77565148,0.7609853745,-1.855655909,-0.0155770639
17.78565148,0.7571674585,-1.719127536,0.1194241568
17.79565148,0.7105889916,-1.604895711,0.2299907655
17.80565148,0.6554583907,-1.503033876,0.3161227703
17.81565148,0.6093381047,-1.427897453,0.3813326359
17.82565148,0.5415320396,-1.408349872,0.4731151462
17.83565148,0.5074763298,-1.427592039,0.5621487498
17.84565148,0.4963280261,-1.523650646,0.5994115472
17.85565148,0.5039638281,-1.560302496,0.5919284225
17.86565148,0.4821254015,-1.472032547,0.5546656251
17.87565148,0.3486513495,-1.282969713,0.4642575979
17.88565148,0.1734857261,-0.9837985039,0.3416263759
17.89565148,0.03039054573,-0.7014260292,0.1945605874
17.90565148,-0.08353582025,-0.295353353,-0.06322455406
17.91565148,-0.09865473956,-0.05390885845,-0.3207042515
17.92565148,-0.05146539584,-0.1027780771,-0.4821254015
17.93565148,0.0354301855,-0.3109304011,-0.5688682795
17.94565148,0.1204931661,-0.4667010605,-0.6027712822
17.95565148,0.1802052408,-0.5338962078,-0.5178610086
17.96565148,0.1664607823,-0.499535054,-0.3417791128
17.97565148,0.1653917581,-0.4934264123,-0.1061378345
17.98565148,0.1934915632,-0.5852088928,0.1264491081
17.99565148,0.2475531399,-0.7935139537,0.4415028691
18.00565148,0.3379611969,-0.9538660645,0.7797694802
18.01565148,0.4218024611,-0.971581161,1.057865858
18.02565148,0.4807509482,-0.9657779336,1.216538191
18.03565148,0.5757405162,-0.999222815,1.258993268
18.04565148,0.751822412,-1.051146388,1.259604096
18.05565148,0.9126327038,-1.050382733,1.201877356
18.06565148,1.022588372,-1.007316828,1.178817153
18.07565148,1.049008369,-0.9373727441,1.209665895
18.08565148,1.037860036,-0.814894259,1.217607141
18.09565148,0.935998261,-0.7212791443,1.153619051
18.10565148,0.7903069258,-0.7673994899,1.015716195
18.11565148,0.6823364496,-0.8894197941,0.8943067193
18.12565148,0.5099197626,-1.07939887,0.7898487449
18.13565148,0.188910082,-1.473712444,0.7113525867
18.14565148,-0.243887946,-1.99172616,0.6287330389
18.15565148,-0.7504479289,-2.615877628,0.5334380865
18.16565148,-1.088103771,-2.957504034,0.444404453
18.17565148,-1.351081252,-3.048522949,0.4016439021
18.18565148,-1.400103092,-2.822502851,0.4554000497
18.19565148,-1.421788812,-2.408794403,0.5283984542
18.20565148,-1.373988628,-2.066251755,0.538783133
18.21565148,-1.109942198,-1.952783465,0.5096143484
18.22565148,-0.5893322229,-1.743562102,0.3058907688
18.23565148,0.01863138936,-1.216538191,0.001374446787
18.24565148,0.5876523852,-0.4943426847,-0.200821951
18.25565148,0.9217956662,0.04444044828,-0.3109304011
18.26565148,1.188132882,0.5123631954,-0.3711006343
18.27565148,1.362993121,0.6812674403,-0.4034765065
18.28565148,1.424843192,0.531452775,-0.4726569951
18.29565148,1.381166339,0.3608686328,-0.5175555944
18.30565148,1.272890449,0.1476766765,-0.5490151644
18.31565148,1.157589674,0.03222314268,-0.5213735104
18.32565148,1.025031924,0.03512475267,-0.4124867618
18.33565148,0.9237809777,0.09117163718,-0.3228422701
18.34565148,0.8535314798,0.2347249687,-0.2742784917
18.35565148,0.7661777139,0.476169467,-0.2179261744
18.36565148,0.6960809231,0.4931209683,-0.08964447677
18.37565148,0.5949827433,0.4228714705,-0.004276056774
18.38565148,0.4807509482,0.3196352422,0.03558290005
18.39565148,0.3185662329,0.2168571651,0.1098030284
18.40565148,0.2193006277,0.2138028294,0.2246456891
18.41565148,0.2177734673,0.2463314086,0.3457497358
18.42565148,0.2721404731,0.3298672438,0.4095851481
18.43565148,0.3799581826,0.4694499373,0.4528038502
18.44565148,0.5093088746,0.4361577928,0.5086980462
18.45565148,0.6007859707,0.2663372457,0.5917757154
18.46565148,0.6545420885,0.07635815442,0.6846272349
18.47565148,0.6954700947,-0.06826419383,0.7486153841
18.48565148,0.7562511563,-0.3488040566,0.8312348723
18.49565148,0.8390234113,-0.6287330389,0.8674286604
18.50565148,0.920268476,-0.7603744864,0.8762862086
18.51565148,0.9837985039,-0.7289149761,0.8665123582
18.52565148,1.040303469,-0.6177374721,0.8292495608
18.53565148,1.037860036,-0.5070181489,0.7626652718
18.54565148,0.9233227968,-0.37751472,0.6159048676
18.55565148,0.7732026577,-0.248164013,0.4068362415
18.56565148,0.6513350606,-0.1149953827,0.2600758672
18.57565148,0.4280638099,0.08796459436,0.1369865239
18.58565148,0.1061378345,0.2234239578,0.04673119262
18.59565148,-0.2390010208,0.3379611969,-0.06566801667
18.60565148,-0.4923573732,0.4865541756,-0.1803579628
18.61565148,-0.825584352,0.6357579827,-0.3352122903
18.62565148,-1.24082005,0.6423248053,-0.5810855627
18.63565148,-1.647809029,0.5655084848,-0.8054258227
18.64565148,-1.812131763,0.5494732857,-0.9004153609
18.65565148,-1.892002344,0.5451972485,-0.9552405477
18.66565148,-1.897500157,0.4831944108,-1.041067123
18.67565148,-1.663996935,0.6803511381,-1.212567568
18.68565148,-1.541671157,1.045953989,-1.452484846
18.69565148,-1.659873605,1.637577057,-1.599245191
18.70565148,-1.97110939,1.914146304,-1.690111399
18.71565148,-2.187966585,1.630704761,-1.842522264
18.72565148,-2.257910728,1.291521788,-1.835802794
18.73565148,-2.171778679,1.165378213,-1.703550458
18.74565148,-1.891238809,0.9042332768,-1.366047382
18.75565148,-1.498452425,0.6003278494,-1.026406288
18.76565148,-1.204779029,0.3645338416,-0.8145887852
18.77565148,-0.9760099649,0.436463207,-0.7304421067
18.78565148,-0.8220719099,0.5187773108,-0.680198431
18.79565148,-0.6258314252,0.8660541773,-0.7811439037
18.80565148,-0.3972151279,1.168279767,-1.099862933
18.81565148,-0.2666426897,1.329395533,-1.387274981
18.82565148,-0.2921462953,1.309847832,-1.43736589
18.83565148,-0.3570507467,0.8455902338,-1.427592039
18.84565148,-0.3969096839,0.212275669,-1.369865298
18.85565148,-0.4205807149,-0.4237877727,-1.247386813
18.86565148,-0.4037819207,-0.829554975,-1.206917048
18.87565148,-0.3903428912,-1.163392901,-1.120784998
18.88565148,-0.3529273868,-1.439351201,-1.011287451
18.89565148,-0.2692388594,-1.565342188,-0.908356607
18.90565148,-0.192727983,-1.592067599,-0.8011497855
18.91565148,-0.1249219403,-1.490205765,-0.6835582256
18.92565148,-0.01802052557,-1.270599723,-0.5128213763
18.93565148,0.09086620808,-0.9981538057,-0.3407101035
18.94565148,0.184786737,-0.6940956116,-0.1463022232
18.95565148,0.2402227521,-0.4871650338,0.004886921961
18.96565148,0.2803871334,-0.3283400834,0.1936442852
18.97565148,0.2736676335,-0.2547308207,0.3784310222
18.98565148,0.2880229652,-0.2222022265,0.5225952268
18.99565148,0.3240640163,-0.2493857294,0.6273586154
19.00565148,0.3677408695,-0.3106249869,0.7026477456
19.01565148,0.4182899892,-0.4318817258,0.7825183868
19.02565148,0.4697553813,-0.5395467281,0.8281805515
19.03565148,0.4850270152,-0.7011205554,0.8284859657
19.04565148,0.476169467,-0.7881689072,0.7962628603
19.05565148,0.4433354437,-0.8258898258,0.7034113407
19.06565148,0.3726277947,-0.6496551633,0.610407114
19.07565148,0.3046690524,-0.2819143236,0.4697553813
19.08565148,0.2374738604,0.006566801574,0.2797762752
19.09565148,0.1751656085,0.311083138,0.07147123665
19.10565148,0.1695151031,0.3746131063,-0.1211040318
19.11565148,0.2090686262,0.3425426781,-0.2275473028
19.12565148,0.2486221492,0.3112358451,-0.2411390543
19.13565148,0.259770453,0.3098613918,-0.200974673
19.14565148,0.2461786866,0.3139847219,-0.0959058404
19.15565148,0.1798998117,0.2142609805,0.06979135424
19.16565148,0.1247692257,-0.009315694682,0.2626720667
19.17565148,0.07513642311,-0.2900082767,0.3798054755
19.18565148,0.0719293803,-0.668286562,0.4815145433
19.19565148,0.2026545405,-0.9338602424,0.6580545902
19.20565148,0.2979495227,-1.114981771,0.791223228
19.21565148,0.3970624208,-1.194394231,0.9431759119
19.22565148,0.5042692423,-1.111469269,1.025337338
19.23565148,0.6407976151,-0.6818783283,0.9943358898
19.24565148,0.7573201656,-0.1123992056,0.8703302741
19.25565148,0.8130616546,0.1831068546,0.7570147514
19.26565148,0.7823656797,0.2811507285,0.6977608204
19.27565148,0.5917757154,0.3074179292,0.6860016584
19.28565148,0.2015855312,0.1814269722,0.7422012687
19.29565148,-0.267406255,-0.04627304152,0.8321511745
19.30565148,-0.586736083,-0.2562579811,0.9156870246
19.31565148,-0.8718574047,-0.6707300544,1.030071497
19.32565148,-0.9987646937,-1.194699645,1.093296051
19.33565148,-0.8906415105,-1.54976511,1.00823307
19.34565148,-0.5534439087,-1.640325904,0.7568620443
19.35565148,-0.2919935882,-1.51983273,0.5496259928
19.36565148,-0.06902777404,-1.383762479,0.3558290005
19.37565148,0.1931861341,-1.344208956,0.1553124934
19.38565148,0.4776966274,-1.200655699,0.02871066704
19.39565148,0.7199047208,-1.011134744,-0.04520402849
19.40565148,0.9851729274,-0.6892086864,-0.1085812971
19.41565148,1.187827468,-0.2415972054,-0.1518000066
19.42565148,1.289994717,0.1910481006,-0.1631010175
19.43565148,1.282511592,0.4274529517,-0.133626774
19.44565148,1.231351614,0.6133087277,-0.1533271819
19.45565148,1.133765936,0.6588181853,-0.1553124934
19.46565148,1.054506183,0.6111706495,-0.1114829108
19.47565148,1.010218382,0.5145012736,-0.02412917651
19.48565148,1.000902653,0.3572034538,0.03985895589
19.49565148,1.005331516,0.1803579628,0.09010262042
19.50565148,0.9844093323,0.07712173462,0.09941831976
19.51565148,0.9031642675,0.09101892263,0.08979719132
19.52565148,0.7953465581,0.07513642311,0.08872817457
19.53565148,0.6204863787,-0.1059851199,0.1136209369
19.54565148,0.4149302244,-0.3964515328,0.1466076523
19.55565148,0.2020436823,-0.5780312419,0.1875356287
19.56565148,0.01725694351,-0.6307183504,0.2339613885
19.57565148,-0.08811730891,-0.6467535496,0.2718350291
19.58565148,-0.1713477075,-0.6711881757,0.3207042515
19.59565148,-0.1941024363,-0.7133378983,0.3535382748
19.60565148,-0.1791362315,-0.7415903807,0.3935499489
19.61565148,-0.1617265791,-0.7564038634,0.4350887835
19.62565148,-0.1689042449,-0.7654141784,0.4911356568
19.63565148,-0.2057088763,-0.770911932,0.5326744914
19.64565148,-0.2623666227,-0.7556403279,0.5487096906
19.65565148,-0.330172658,-0.7244861722,0.5270239711
19.66565148,-0.366061002,-0.7073819637,0.4856378734
19.67565148,-0.377209276,-0.7009678483,0.4112650156
19.68565148,-0.3588833213,-0.6893614531,0.3320052624
19.69565148,-0.3231477141,-0.7093672752,0.2499966025
19.70565148,-0.2712241709,-0.743881166,0.1837177277
19.71565148,-0.1737911552,-0.7878634334,0.1101084575
19.72565148,-0.05925392732,-0.833983779,0.04627304152
19.73565148,0.07819075137,-0.8272642493,0.001985311974
19.74565148,0.169209674,-0.8434522152,-0.004276056774
19.75565148,0.2428189367,-0.9433286786,0.01466076635
19.76565148,0.279470861,-1.039998055,0.05665775016
19.77565148,0.2501493096,-1.056491494,0.1079704314
19.78565148,0.1262963861,-0.9453139901,0.1429424733
19.79565148,-0.001985311974,-0.7884743214,0.1354593635
19.80565148,-0.1989893466,-0.624915123,0.08781187981
19.81565148,-0.5047274232,-0.5138903856,0.01450804994
19.82565148,-0.8761335015,-0.4660901725,-0.06276640296
19.83565148,-1.143387079,-0.4981606007,-0.1223257631
19.84565148,-1.415069342,-0.5852088928,-0.2015855312
19.85565148,-1.638798714,-0.5711590052,-0.3220787048
19.86565148,-1.833512068,-0.3935499489,-0.464715749
19.87565148,-2.032654047,-0.05742133409,-0.676227808
19.88565148,-2.230574369,0.2948952019,-0.925460875
19.89565148,-2.520430088,0.7380779386,-1.181413412
19.90565148,-2.796082973,0.793972075,-1.191645384
19.91565148,-2.880076885,0.165086329,-1.151022792
19.92565148,-2.727971554,-0.3810271919,-1.183398724
19.93565148,-2.346333504,-0.7159340382,-1.265254617
19.94565148,-1.96591711,-1.150411963,-1.290147424
19.95565148,-1.782657504,-1.857183099,-1.264949203
19.96565148,-1.694387436,-2.406809092,-1.238834739
19.97565148,-1.521512628,-2.830749512,-1.170570493
19.98565148,-1.271668673,-2.874731779,-1.139569163
19.99565148,-0.8584184051,-2.737745285,-1.351844788
20.00565148,-0.516333878,-2.469422817,-1.509753466
20.01565148,-0.2590068579,-2.20262742,-1.588096976
20.02565148,-0.004123340361,-1.706910253,-1.593289256
20.03565148,0.1922698319,-1.139416456,-1.621083617
20.04565148,0.3585779071,-0.7357872128,-1.572825313
20.05565148,0.4650211632,-0.7990117669,-1.440267563
20.06565148,0.5638286471,-1.184773088,-1.311833143
20.07565148,0.6805039048,-1.749059916,-1.246623278
20.08565148,0.7790058851,-2.345264435,-1.211040378
20.09565148,0.845895648,-2.850908041,-1.197906733
20.10565148,0.872926414,-3.188869238,-1.207069755
20.11565148,0.8817839622,-3.549585104,-1.150411963
20.12565148,0.8578075171,-3.824932814,-1.071304917
20.13565148,0.8429940343,-4.044996738,-0.9931141734
20.14565148,0.8677340746,-4.160297871,-0.9303477407
20.15565148,0.908356607,-4.275751114,-0.8199338913
20.16565148,0.897208333,-4.265519142,-0.6892086864
20.17565148,0.8550586104,-4.105778217,-0.6101016402
20.18565148,0.8066475391,-3.949702024,-0.5482515693
20.19565148,0.7649559975,-3.718794823,-0.5041165352
20.20565148,0.7565566301,-3.505602837,-0.4993823469
20.21565148,0.7588473558,-3.380833626,-0.4437935948
20.22565148,0.7489207983,-3.359300613,-0.3691153228
20.23565148,0.7486153841,-3.328910112,-0.3054326177
20.24565148,0.7476990819,-3.242167234,-0.2574796975
20.25565148,0.7119634151,-3.127477407,-0.2420553565
20.26565148,0.6253733039,-2.946661234,-0.2971859276
20.27565148,0.5045747161,-2.686585426,-0.357814312
20.28565148,0.3379611969,-2.380389214,-0.4022547603
20.29565148,0.2377792895,-2.203696489,-0.4219551682
20.30565148,0.1609629989,-2.139555454,-0.4068362415
20.31565148,0.06520986557,-2.143373489,-0.3675881624
20.32565148,-0.0239764601,-2.178803682,-0.3321579695
20.33565148,-0.1339322031,-2.224313021,-0.2981022298
20.34565148,-0.1867720485,-2.227520227,-0.2845104933
20.35565148,-0.2052507252,-2.210721254,-0.2503020465
20.36565148,-0.2110539377,-2.241722822,-0.2076941878
20.37565148,-0.2208277881,-2.35992527,-0.137444675
20.38565148,-0.2215913683,-2.500118732,-0.06261368841
20.39565148,-0.1904372424,-2.54669714,0.006719517522
20.40565148,-0.1492038369,-2.487748623,0.0606283769
20.41565148,-0.08200865984,-2.344959021,0.1125519201
20.42565148,0.01267545391,-2.138180971,0.1501201391
20.43565148,0.1073595658,-1.917811394,0.1634064466
20.44565148,0.1971567571,-1.711949825,0.1521054506
20.45565148,0.2664899528,-1.540754914,0.1346957833
20.46565148,0.3400992155,-1.299463034,0.1186605766
20.47565148,0.3726277947,-1.018312335,0.1043052375
20.48565148,0.3944662213,-0.7751879692,0.08475755155
20.49565148,0.432798028,-0.6866125464,0.08643743396
20.50565148,0.4830417037,-0.6763805151,0.1243110746
20.51565148,0.4531092942,-0.6220135093,0.2026545405
20.52565148,0.3355177343,-0.5355761051,0.2887865305
20.53565148,0.1912008226,-0.5755877495,0.3743076921
20.54565148,0.09804387391,-0.7107416987,0.4470006526
20.55565148,-0.00122173049,-0.9392052889,0.5510004759
20.56565148,-0.06719517708,-1.196532249,0.6253733039
20.57565148,-0.09926560521,-1.509753466,0.6811147332
20.58565148,-0.1003346145,-1.870469332,0.7157813311
20.59565148,-0.04657847434,-2.401922226,0.7116580009
20.60565148,0.054061573,-2.86022377,0.6504187584
20.61565148,0.0731511116,-3.146566868,0.5841398835
20.62565148,-0.03054326214,-3.216052771,0.5326744914
20.63565148,-0.2147191316,-3.222314119,0.4230241776
20.64565148,-0.3156646192,-2.985756636,0.2194533348
20.65565148,-0.2602286041,-2.788905382,-0.0201585535
20.66565148,-0.1348485053,-2.588694096,-0.2536617815
20.67565148,-0.02061670274,-2.371073484,-0.3759875596
20.68565148,0.1073595658,-2.184148788,-0.4349360466
20.69565148,0.1780672222,-1.908648491,-0.4457789063
20.70565148,0.2050980031,-1.571145415,-0.4673119187
20.71565148,0.235793978,-1.345125318,-0.488081336
20.72565148,0.3094032407,-1.123533845,-0.515112102
20.73565148,0.4108068645,-1.06702888,-0.5345070958
20.74565148,0.484110713,-1.044274092,-0.5125159621
20.75565148,0.5027421117,-1.058934927,-0.4870123267
20.76565148,0.4909829497,-1.104597092,-0.4653266072
20.77565148,0.4276056588,-1.143539786,-0.4237877727
20.78565148,0.3410155177,-1.192714334,-0.3544545472
20.79565148,0.2370157093,-1.217607141,-0.2738203406
20.80565148,0.1634064466,-1.227228284,-0.216246292
20.81565148,0.09147707373,-1.154688001,-0.1864666194
20.82565148,0.05131268129,-1.074512005,-0.1383609772
20.83565148,0.01450804994,-1.070541382,-0.04184427112
20.84565148,0.005192354787,-1.106582403,0.03481931984
20.85565148,0.01069014147,-1.160796642,0.0956004113
20.86565148,0.02336559631,-1.187980175,0.1553124934
20.87565148,0.02458732575,-1.185842156,0.2138028294
20.88565148,-0.007788531948,-1.149801135,0.2715296149
20.89565148,-0.04260785133,-1.102459073,0.3011565804
20.90565148,-0.08307767659,-1.10673511,0.3280346394
20.91565148,-0.08750644326,-1.152244568,0.3277291954
20.92565148,-0.03207042441,-1.16140759,0.3239113092
20.93565148,0.05390885845,-1.053742528,0.3243694305
20.94565148,0.2075414658,-0.8484918475,0.3179553747
20.95565148,0.3849978149,-0.6872233748,0.3171917796
20.96565148,0.5270239711,-0.6464481354,0.3330742717
20.97565148,0.5879577994,-0.6030766964,0.3808744848
20.98565148,0.5885686874,-0.5346598029,0.4129449129
20.99565148,0.5942191482,-0.4978551865,0.4350887835
21.00565148,0.6362161636,-0.5145012736,0.4202753007
21.01565148,0.691957593,-0.5690209866,0.4016439021
21.02565148,0.7070765495,-0.6030766964,0.3915646076
21.03565148,0.6681338549,-0.6279694438,0.3720169365
21.04565148,0.5648976564,-0.6276640296,0.3367394805
21.05565148,0.4089742899,-0.6267477274,0.315053761
21.06565148,0.2484694421,-0.661719799,0.3127630055
21.07565148,0.02718350291,-0.751211524,0.3162754774
21.08565148,-0.1606575549,-0.8549059033,0.3039054573
21.09565148,-0.286801219,-0.8868235946,0.2672535479
21.10565148,-0.3628539443,-0.79061234,0.2228130996
21.11565148,-0.3808744848,-0.5992587805,0.1713477075
21.12565148,-0.3544545472,-0.3275764883,0.09208793938
21.13565148,-0.3236058652,-0.1183551401,0.01389718428
21.14565148,-0.3211624026,-0.01130100712,-0.05879577994
21.15565148,-0.3568980098,-0.0003054326226,-0.1160643995
21.16565148,-0.4462370574,-0.03283400834,-0.1722639948
21.17565148,-0.5922338367,-0.03665191308,-0.2208277881
21.18565148,-0.8223773241,0.0003054326226,-0.2751947939
21.19565148,-1.121090412,0.03176499158,-0.3575088978
21.20565148,-1.37032342,0.02580905706,-0.4303545654
21.21565148,-1.654070377,0.02687807009,-0.5164865851
21.22565148,-1.915367961,0.0109955743,-0.6102544069
21.23565148,-2.199420214,0.03176499158,-0.7402159572
21.24565148,-2.396118879,0.05222897977,-0.8326093554
21.25565148,-2.541352034,-0.0239764601,-0.8704829812
21.26565148,-2.56777215,-0.1933388561,-0.8897252083
21.27565148,-2.470491886,-0.5574145317,-0.9150761366
21.28565148,-2.306932688,-0.9353874326,-0.9686795473
21.29565148,-2.096489429,-1.431562662,-1.044885039
21.30565148,-1.817018628,-1.737911582,-1.186147571
21.31565148,-1.546099901,-1.809230089,-1.271210551
21.32565148,-1.390634775,-1.775021672,-1.378722906
21.33565148,-1.211193085,-1.683239222,-1.427439332
21.34565148,-0.9921978712,-1.486540556,-1.316872716
21.35565148,-0.6992880106,-1.217759848,-1.215774536
21.36565148,-0.4040873647,-0.9286679029,-1.234253287
21.37565148,-0.1843285859,-0.5913175344,-1.289078355
21.38565148,-0.04123340547,-0.3124575615,-1.326799273
21.39565148,0.08964447677,-0.2758056521,-1.478293896
21.40565148,0.2240348309,-0.338419348,-1.644907355
21.41565148,0.291077286,-0.6313292384,-1.740507841
21.42565148,0.3433062732,-0.9318749309,-1.831374049
21.43565148,0.3755294085,-1.407128096,-1.831526756
21.44565148,0.3008511364,-1.986991882,-1.782046676
21.45565148,0.2335032374,-2.33625412,-1.722792745
21.46565148,0.1656972021,-2.537534237,-1.591914773
21.47565148,0.06780604273,-2.66581583,-1.430035591
21.48565148,0.03466660157,-2.655889273,-1.282206178
21.49565148,0.09300423414,-2.487901449,-1.167821646
21.50565148,0.1901318133,-2.267989874,-1.071610332
21.51565148,0.3379611969,-1.969124079,-0.9384417534
21.52565148,0.4773911834,-1.677741408,-0.8113817573
21.53565148,0.6365215778,-1.401935697,-0.7148650289
21.54565148,0.6606507897,-1.353677392,-0.5230533481
21.55565148,0.6369797587,-1.314276576,-0.3762930036
21.56565148,0.598495245,-1.260520458,-0.2112066597
21.57565148,0.5763513446,-1.246775985,-0.07070764899
21.58565148,0.5603161454,-1.244027019,0.05635231733
21.59565148,0.5441282392,-1.21042943,0.1444696337
21.60565148,0.531452775,-1.170570493,0.2277000248
21.61565148,0.5225952268,-1.134224057,0.3072652221
21.62565148,0.5099197626,-1.102764487,0.3514002264
21.63565148,0.476169467,-1.040609002,0.3555235863
21.64565148,0.4372268021,-0.9662361145,0.3474296033
21.65565148,0.3721696436,-0.8553640842,0.3249803185
21.66565148,0.2898555696,-0.7370089293,0.2793181241
21.67565148,0.1930334121,-0.6542366743,0.1992947906
21.68565148,0.1182024255,-0.6632469296,0.1102611795
21.69565148,0.06154467165,-0.763581574,-0.02199114859
21.70565148,0.06383541971,-0.8659014702,-0.1311833113
21.71565148,0.1182024255,-0.9030115604,-0.1937969923
21.72565148,0.1791362315,-0.8607091308,-0.1997529417
21.73565148,0.255188942,-0.7350236177,-0.145538643
21.74565148,0.3255911767,-0.5412266254,-0.03344487399
21.75565148,0.3652974069,-0.3417791128,0.1189660057
21.76565148,0.366061002,-0.184786737,0.3260493279
21.77565148,0.3524692357,-0.04978551716,0.5062545538
21.78565148,0.3217732608,0.07864890248,0.6986771226
21.79565148,0.3040581644,0.02382374369,0.8315402865
21.80565148,0.3477350473,-0.1488984078,0.8830057383
21.81565148,0.4108068645,-0.3100140989,0.8856018782
21.82565148,0.4925101101,-0.4760167301,0.9176723361
21.83565148,0.5586362481,-0.5711590052,0.9792169929
21.84565148,0.6209445,-0.6553056836,1.020144939
21.85565148,0.6473644376,-0.605825603,0.9789115787
21.86565148,0.6311765313,-0.5835290551,0.9191994667
21.87565148,0.5897904038,-0.6218608022,0.8909469843
21.88565148,0.5392413139,-0.7217372656,0.8955284357
21.89565148,0.4225660264,-0.9340129495,0.9225592613
21.90565148,0.2380847335,-1.247692227,0.9590584636
21.91565148,-0.03222314268,-1.678657651,0.9841039181
21.92565148,-0.2825251818,-2.14490056,0.9660834074
21.93565148,-0.3669773042,-2.286163092,0.8581129313
21.94565148,-0.2912299931,-2.032348633,0.7725918293
21.95565148,-0.1059851199,-1.692554832,0.6692028642
21.96565148,0.09651670605,-1.351081252,0.522900641
21.97565148,0.3200933933,-1.027475357,0.3289509416
21.98565148,0.5445863605,-0.6930266023,0.137444675
21.99565148,0.6565274,-0.3688098788,0.06459899992
22.00565148,0.7133378983,-0.07116580009,-0.01328631863
22.01565148,0.7348709106,0.09162978828,-0.1406517178
22.02565148,0.7243334651,0.1437060535,-0.2562579811
22.03565148,0.7255551815,0.1476766765,-0.3014619946
22.04565148,0.7148650289,0.102472648,-0.3529273868
22.05565148,0.6937901974,0.1244637966,-0.3820962012
22.06565148,0.6927211881,0.216551736,-0.4109596014
22.07565148,0.6902777553,0.3281873465,-0.4408919811
22.08565148,0.6951646209,0.4422664344,-0.4439463317
22.09565148,0.736092627,0.5296201706,-0.4068362415
22.10565148,0.7880161405,0.49922961,-0.3436116874
22.11565148,0.8161159754,0.3996585906,-0.2562579811
22.12565148,0.8060367107,0.3231477141,-0.1663080603
22.13565148,0.7506006956,0.2273945808,-0.05574145541
22.14565148,0.6539312601,0.08842274547,0.04627304152
22.15565148,0.5419901609,0.002138028387,0.1363756657
22.16565148,0.4537201524,-0.01023199316,0.2096794993
22.17565148,0.4057672322,-0.00122173049,0.2623666227
22.18565148,0.3594942093,-0.02779436857,0.311083138
22.19565148,0.3269656301,-0.08368854225,0.3584251702
22.20565148,0.3098613918,-0.09147707373,0.4072943926
22.21565148,0.3081815243,-0.04993823543,0.4440990388
22.22565148,0.3359758854,-0.004581489135,0.4870123267
22.23565148,0.3509420753,-0.02046398632,0.5149593949
22.24565148,0.3207042515,-0.05879577994,0.5160284042
22.25565148,0.2764165103,-0.05070181563,0.5064072609
22.26565148,0.228463605,-0.04367686436,0.4857905805
22.27565148,0.2220495194,-0.0239764601,0.4578435123
22.28565148,0.2330450863,-0.02000583708,0.4236350358
22.29565148,0.2441933751,-0.0282525178,0.3882048726
22.30565148,0.2406809032,-0.04780020565,0.3575088978
22.31565148,0.2235766798,-0.06368270516,0.3098613918
22.32565148,0.2063197345,-0.06475171447,0.2489275932
22.33565148,0.2025018334,-0.04963280261,0.1745547503
22.34565148,0.188604638,-0.01511891466,0.1087340117
22.35565148,0.137597397,0.03023782931,0.02244929783
22.36565148,0.06734789163,0.05574145541,-0.07864890248
22.37565148,-0.006719517522,0.07757988572,-0.196851328
22.38565148,-0.1044579595,0.1421788931,-0.318413496
22.39565148,-0.255494386,0.2457205504,-0.5068654418
22.40565148,-0.3988949955,0.3346014321,-0.6794348955
22.41565148,-0.5349652171,0.4075998366,-0.8313875794
22.42565148,-0.6323982477,0.4425718784,-0.9335548282
22.43565148,-0.7382306457,0.4711298347,-0.999222815
22.44565148,-1.012509108,0.6229298115,-1.049161077
22.45565148,-1.296866894,1.022741079,-1.202793717
22.46565148,-1.599397898,1.500590444,-1.32542491
22.47565148,-1.868942261,1.782504797,-1.389412999
22.48565148,-2.154063463,1.803274155,-1.50593555
22.49565148,-2.29960227,1.630399346,-1.585958838
22.50565148,-2.208888769,1.421483397,-1.532355428
22.51565148,-1.937664509,1.113149166,-1.322065115
22.52565148,-1.649641633,0.9447031021,-1.09024179
22.53565148,-1.347110629,0.6962336898,-0.7942775488
22.54565148,-1.095128655,0.4454734921,-0.6178901792
22.55565148,-0.8378016949,0.4993823469,-0.5422956347
22.56565148,-0.5760459304,0.7107416987,-0.5439754725
22.57565148,-0.2901609838,1.047328472,-0.7490735054
22.58565148,-0.02489275858,1.471268892,-1.269683361
22.59565148,-0.005345070735,2.023032904,-1.473101497
22.60565148,-0.07376197726,2.10931778,-1.485929728
22.61565148,-0.259770453,1.724319816,-1.39246738
22.62565148,-0.3332269788,1.253342748,-1.27640295
22.63565148,-0.3442225754,0.4619668424,-1.187980175
22.64565148,-0.2918408811,-0.1725694388,-1.181566119
22.65565148,-0.2701551616,-0.5809328556,-1.13254416
22.66565148,-0.3014619946,-0.9789115787,-1.036943793
22.67565148,-0.330172658,-1.270294309,-0.9702067375
22.68565148,-0.2826778889,-1.3377949,-0.8570439219
22.69565148,-0.2339613885,-1.297477722,-0.7348709106
22.70565148,-0.1459967941,-1.131780624,-0.5925393105
22.71565148,-0.05009094998,-0.916908741,-0.4437935948
22.72565148,0.0282525178,-0.6522513628,-0.2813034356
22.73565148,0.09865473956,-0.3385720551,-0.1052215397
22.74565148,0.1348485053,-0.0410806872,0.05009094998
22.75565148,0.1713477075,0.1090394482,0.2254092693
22.76565148,0.1721112877,0.1609629989,0.3758348525
22.77565148,0.1936442852,0.1065959856,0.4879286289
22.78565148,0.2362521291,0.02947424725,0.5728389025
22.79565148,0.2790127099,-0.05177082866,0.7017314434
22.80565148,0.2942843437,-0.1036943719,0.8271115422
22.81565148,0.3822489381,-0.28313604,0.8455902338
22.82565148,0.4225660264,-0.3721696436,0.857196629
22.83565148,0.4415028691,-0.5325217843,0.8381071091
22.84565148,0.4360050559,-0.6010913849,0.8144360781
22.85565148,0.4017966092,-0.5093088746,0.7661777139
22.86565148,0.3318525553,-0.2814561725,0.6637051105
22.87565148,0.2565633953,-0.03512475267,0.5358815193
22.88565148,0.1844813079,0.2646573782,0.2897028327
22.89565148,0.184786737,0.445015341,0.0270307865
22.90565148,0.2458732575,0.4540255964,-0.14156802
22.91565148,0.2832887471,0.4021020532,-0.2017382532
22.92565148,0.3233004212,0.338724792,-0.2093740702
22.93565148,0.3669773042,0.271376878,-0.1281289905
22.94565148,0.3694207668,0.17715092,0.05696318299
22.95565148,0.3228422701,0.07116580009,0.3006984293
22.96565148,0.2935207486,-0.04673119262,0.5002986193
22.97565148,0.2351831198,-0.08872817457,0.6502660513
22.98565148,0.2118175179,-0.1912008226,0.7304421067
22.99565148,0.2681698501,-0.2973386645,0.7541131377
23.00565148,0.3579670191,-0.2055561543,0.7350236177
23.01565148,0.4557054639,0.06429356337,0.6837109327
23.02565148,0.5291619897,0.3165809214,0.6543893814
23.03565148,0.5641340613,0.4848742783,0.6663012505
23.04565148,0.5448917747,0.5568036437,0.7081455588
23.05565148,0.5035057068,0.5302310586,0.7655668855
23.06565148,0.4541783035,0.3245221674,0.8451320529
23.07565148,0.3880521357,-0.02122756653,0.9398161769
23.08565148,0.2790127099,-0.3773620129,1.052826285
23.09565148,0.149509266,-0.6501133442,1.123533845
23.10565148,0.001832595794,-0.849255383,1.141096234
23.11565148,-0.03375030309,-0.7461718917,1.054964304
23.12565148,0.02244929783,-0.495869875,0.9048441648
23.13565148,0.08246681094,-0.267711699,0.7863363028
23.14565148,0.1999056488,-0.1186605766,0.6673702598
23.15565148,0.3691153228,0.1131627858,0.5534439087
23.16565148,0.5366451144,0.3904955983,0.3959933817
23.17565148,0.6433938146,0.6214026809,0.3043636084
23.18565148,0.684779942,0.7619016767,0.2658790946
23.19565148,0.6899722815,0.968221426,0.2231185287
23.20565148,0.6488916278,1.135751247,0.2118175179
23.21565148,0.6044511795,1.260367751,0.1869247705
23.22565148,0.6020076871,1.375821233,0.1411098689
23.23565148,0.6502660513,1.448819637,0.1255328059
23.24565148,0.7409795523,1.455080986,0.07299839705
23.25565148,0.8332201838,1.552055836,-0.004734205548
23.26565148,0.8683449626,1.706146598,-0.0833831057
23.27565148,0.8623890281,1.808008432,-0.102319926
23.28565148,0.8206974864,1.800067186,-0.07422012836
23.29565148,0.7915286422,1.660942554,-0.04566217586
23.30565148,0.786641717,1.429271936,-0.04810563847
23.31565148,0.7874053121,1.240667343,-0.08323039114
23.32565148,0.7521278262,1.098030329,-0.08765916526
23.33565148,0.700509727,0.9978483915,-0.03680463135
23.34565148,0.6698137522,0.8843801618,0.02489275858
23.35565148,0.6759223938,0.7812966704,0.08048149943
23.36565148,0.7174612284,0.6905831695,0.1580613852
23.37565148,0.7761042714,0.6159048676,0.2344195396
23.38565148,0.8194757104,0.5794056654,0.2878702581
23.39565148,0.8310821652,0.5238169432,0.3718642294
23.40565148,0.8133670688,0.4631885588,0.4349360466
23.41565148,0.77152282,0.3704897761,0.5041165352
23.42565148,0.6837109327,0.3152064681,0.5674937963
23.43565148,0.5523748994,0.3145956099,0.6201809645
23.44565148,0.4297437072,0.3106249869,0.6520986557
23.45565148,0.2725986242,0.3052799106,0.6548475623
23.46565148,0.1426370293,0.400880307,0.6116288304
23.47565148,0.06979135424,0.5401576161,0.5380195379
23.48565148,0.03924809024,0.6371324658,0.4592179358
23.49565148,0.02061670274,0.653167665,0.4043927789
23.50565148,0.008704829961,0.6165157557,0.3553708494
23.51565148,0.02504547499,0.5766568184,0.3014619946
23.52565148,0.06200282276,0.5688682795,0.2330450863
23.53565148,0.09132435173,0.5745187402,0.1585195363
23.54565148,0.1404990107,0.5645921826,0.03878994286
23.55565148,0.2214386463,0.5650503635,-0.1043052375
23.56565148,0.2822197378,0.6094908118,-0.255494386
23.57565148,0.2854267955,0.6421720982,-0.3871358633
23.58565148,0.2559525371,0.6404922009,-0.5665774941
23.59565148,0.2286163121,0.6496551633,-0.7423539758
23.60565148,0.1441642046,0.6273586154,-0.872926414
23.61565148,-0.05207626149,0.7055493593,-0.9734137654
23.62565148,-0.2819143236,0.9509644508,-1.052368045
23.63565148,-0.6979135275,1.383457065,-1.172555804
23.64565148,-1.211193085,1.936290145,-1.277319193
23.65565148,-1.657124639,2.413375854,-1.324050426
23.66565148,-1.933999419,2.688723326,-1.347874165
23.67565148,-2.16811347,2.877633572,-1.3842206
23.68565148,-2.229658127,2.89427948,-1.432937145
23.69565148,-2.138180971,2.722321033,-1.401019454
23.70565148,-1.99844563,2.530203819,-1.200808406
23.71565148,-1.831679463,2.343126297,-0.9494373202
23.72565148,-1.592220306,2.128712654,-0.7189884186
23.73565148,-1.30328095,1.870163918,-0.5951354504
23.74565148,-0.9792169929,1.662317038,-0.4918992519
23.75565148,-0.747851789,1.723861694,-0.5187773108
23.76565148,-0.4987714589,1.829388738,-0.6931793094
23.77565148,-0.2131919712,2.205834389,-1.018923283
23.78565148,-0.2307543457,2.448653221,-1.295797944
23.79565148,-0.3799581826,2.269364357,-1.32954824
23.80565148,-0.5335907936,1.851074457,-1.133765936
23.81565148,-0.559094429,1.482569933,-1.080773354
23.82565148,-0.6146831512,0.8510879874,-0.9558513761
23.83565148,-0.657749176,0.2984076738,-0.8536841869
23.84565148,-0.6557638645,0.01114829071,-0.7832819819
23.85565148,-0.6403394938,-0.2722931802,-0.7017314434
23.86565148,-0.5254968405,-0.3324634135,-0.6681338549
23.87565148,-0.3793473244,-0.3397938013,-0.6134614348
23.88565148,-0.2690861523,-0.3069597781,-0.5537493229
23.89565148,-0.1250746548,-0.2226603776,-0.452192992
23.90565148,0.02504547499,-0.1369865239,-0.3335324228
23.91565148,0.1553124934,-0.02489275858,-0.1841758788
23.92565148,0.2609921694,0.08689557761,-0.01160643995
23.93565148,0.3254384696,0.1603521258,0.1485929638
23.94565148,0.3666718602,0.2196060568,0.3587306142
23.95565148,0.3859141171,0.2641992271,0.5323690772
23.96565148,0.405156374,0.1950187236,0.6783658266
23.97565148,0.4315762818,0.03298672289,0.7739662528
23.98565148,0.4810563922,-0.2281581759,0.8726209998
23.99565148,0.5283984542,-0.4990769029,0.9527970552
24.00565148,0.5682573915,-0.7747298479,1.003804326
24.01565148,0.6036875844,-0.9914342761,1.024573684
24.02565148,0.6366742849,-1.195768714,1.001360893
24.03565148,0.6583600044,-1.160796642,0.940579772
24.04565148,0.5820018649,-0.8118399382,0.8704829812
24.05565148,0.4071416855,-0.3176499307,0.7024950385
24.06565148,0.240070045,0.01191187184,0.4347833395
24.07565148,0.09575312585,0.2652682364,-0.005497787148
24.08565148,0.07666359097,0.4205807149,-0.4124867618
24.09565148,0.109955743,0.5161811113,-0.5743660331
24.10565148,0.137597397,0.5583308339,-0.5888741016
24.11565148,0.1655444801,0.7141014934,-0.5404630303
24.12565148,0.1404990107,0.9897544384,-0.3521638215
24.13565148,0.0484110713,1.119410515,-0.02779436857
24.14565148,-0.003817907767,0.8668177724,0.3164281845
24.15565148,-0.05192354694,0.5528330207,0.4625777006
24.16565148,-0.2383901626,0.1997529417,0.5378668308
24.17565148,-0.3411682248,-0.1637118906,0.6362161636
24.18565148,-0.2838996351,-0.4598288238,0.6528622508
24.19565148,-0.2455678284,-0.366061002,0.6362161636
24.20565148,-0.2715296149,-0.008704829961,0.6907358766
24.21565148,-0.3196352422,0.2475531399,0.8008443117
24.22565148,-0.408821553,0.204639852,0.8568912148
24.23565148,-0.5210680366,-0.09101892263,0.8872817755
24.24565148,-0.6267477274,-0.6455318332,0.9442449808
24.25565148,-0.5778785348,-1.070541382,0.9674578309
24.26565148,-0.350025773,-1.13666749,0.9692904353
24.27565148,0.002596177394,-0.8177958727,0.9923505783
24.28565148,0.278859973,-0.3672827184,1.005178809
24.29565148,0.545960784,0.2585487068,0.9885326624
24.30565148,0.7353290319,0.6791294217,0.9233227968
24.31565148,0.8924741149,0.8910996914,0.8083274364
24.32565148,1.088256478,0.9505063295,0.6592763066
24.33565148,1.386511445,0.9451612234,0.4415028691
24.34565148,1.569923639,1.003498912,0.2657263875
24.35565148,1.564884067,1.125061035,0.1954768747
24.36565148,1.468214631,1.426981211,0.1814269722
24.37565148,1.351844788,1.747990847,0.1992947906
24.38565148,1.167821646,1.960419297,0.2031126916
24.39565148,1.014647126,1.924836397,0.1324050426
24.40565148,0.9381362796,1.846951127,0.08689557761
24.41565148,0.9256135821,1.864055276,0.07605272532
24.42565148,0.9178250432,1.906968594,0.06536258012
24.43565148,0.9260717034,1.931861281,0.01175915636
24.44565148,0.9294314981,1.963015437,-0.07116580009
24.45565148,0.8759807348,1.901318073,-0.09330966324
24.46565148,0.7377725244,1.639715075,-0.06520986557
24.47565148,0.6354525685,1.334435105,-0.05696318299
24.48565148,0.5931501389,1.048244715,-0.03756821156
24.49565148,0.5768095255,0.8539896011,0.02977968007
24.50565148,0.5682573915,0.7480044961,0.0963639915
24.51565148,0.5705481172,0.6592763066,0.1873829067
24.52565148,0.6007859707,0.5905539989,0.2528982162
24.53565148,0.6214026809,0.4987714589,0.2854267955
24.54565148,0.6282749176,0.428827405,0.2898555696
24.55565148,0.6499606371,0.3579670191,0.2881756723
24.56565148,0.6359107494,0.4042400718,0.3202461004
24.57565148,0.5653557777,0.573602438,0.3724750876
24.58565148,0.4659374654,0.6910412908,0.4416555762
24.59565148,0.3445279896,0.6844745278,0.4967861474
24.60565148,0.1598939747,0.6185010672,0.5395467281
24.61565148,-0.003817907767,0.5418374538,0.5467243791
24.62565148,-0.0956004113,0.5102251768,0.5320636034
24.63565148,-0.1200350225,0.5051855445,0.5100724697
24.64565148,-0.1212567538,0.495564431,0.4734205604
24.65565148,-0.1096503139,0.4468479156,0.445015341
24.66565148,-0.09804387391,0.3979786932,0.4239404798
24.67565148,-0.08704829961,0.3885102868,0.4043927789
24.68565148,-0.05115996301,0.3608686328,0.3614795208
24.69565148,0.002138028387,0.3115412891,0.311083138
24.70565148,0.0601702258,0.2793181241,0.25579983
24.71565148,0.1131627858,0.2582432926,0.1860084683
24.72565148,0.1841758788,0.2706133127,0.1029307917
24.73565148,0.2608394623,0.3272710443,-0.01771509275
24.74565148,0.248011291,0.3707951903,-0.1711949855
24.75565148,0.1617265791,0.3856086731,-0.3504839242
24.76565148,0.04627304152,0.3875939846,-0.4906775057
24.77565148,-0.1305724531,0.3865249753,-0.6527095437
24.78565148,-0.3791945875,0.4262312353,-0.7887797356
24.79565148,-0.7008151412,0.53481251,-0.8999572396
24.80565148,-1.033431292,0.7414376736,-1.010676503
24.81565148,-1.310000539,0.9863946438,-1.091921568
24.82565148,-1.637271523,1.380402684,-1.150259256
24.83565148,-1.849699974,1.839315295,-1.210887671
24.84565148,-2.025629044,2.199420214,-1.270905137
24.85565148,-2.159255981,2.410321474,-1.342834473
24.86565148,-2.224771261,2.555860281,-1.416443825
24.87565148,-2.099391222,2.544864655,-1.376432061
24.88565148,-1.88650465,2.402991056,-1.228602767
24.89565148,-1.701412439,1.993100524,-1.027169943
24.90565148,-1.400255799,1.624901533,-0.7916813493
24.91565148,-1.209513187,1.141859889,-0.6322455406
24.92565148,-0.9789115787,0.8231409192,-0.6148358583
24.93565148,-0.6556110978,0.897208333,-0.7076873779
24.94565148,-0.4515821338,1.326646566,-0.8242099285
24.95565148,-0.1397354305,1.879937768,-1.148884773
24.96565148,-0.09178250283,2.069764137,-1.457982659
24.97565148,-0.2509129047,1.686751604,-1.467145562
24.98565148,-0.2964223623,1.251815557,-1.381471753
24.99565148,-0.2408336252,0.7716755271,-1.335351467
25.00565148,-0.248164013,0.2121229619,-1.271210551
25.01565148,-0.2562579811,-0.2933680415,-1.218981624
25.02565148,-0.2617557645,-0.684779942,-1.167363524
25.03565148,-0.2539672256,-0.9498954415,-1.088256478
25.04565148,-0.2328923792,-1.18202424,-0.991892457
25.05565148,-0.1484402567,-1.272126913,-0.9179777503
25.06565148,-0.03970624134,-1.326646566,-0.8281805515
25.07565148,0.04077525437,-1.378875613,-0.7602217793
25.08565148,0.1440114826,-1.386969566,-0.6469063163
25.09565148,0.2510656118,-1.282358885,-0.4828889668
25.10565148,0.338419348,-1.174693823,-0.287106663
25.11565148,0.4120286107,-1.050840974,-0.1302670091
25.12565148,0.4790710807,-0.8759807348,0.05849034712
25.13565148,0.5265658498,-0.7266241908,0.2179261744
25.14565148,0.5335907936,-0.6820310354,0.3439171314
25.15565148,0.5109887719,-0.7441865802,0.464410305
25.16565148,0.4836525619,-0.8197811842,0.5580254197
25.17565148,0.4540255964,-0.9077457786,0.6711881757
25.18565148,0.433103472,-1.016327024,0.7365507483
25.19565148,0.4063780904,-1.147815824,0.7444919944
25.20565148,0.3930917978,-1.17118144,0.7211264372
25.21565148,0.3712533414,-1.093906879,0.6776022911
25.22565148,0.3326161206,-0.821613729,0.5864306092
25.23565148,0.2892446816,-0.4424191415,0.428521961
25.24565148,0.2341141105,-0.01282817032,0.2429716438
25.25565148,0.1673770845,0.2434297949,0.104152523
25.26565148,0.07712173462,0.4025602043,-0.03527746722
25.27565148,0.02076941915,0.3898847401,-0.09147707373
25.28565148,-0.02794708498,0.2359467,-0.05925392732
25.29565148,-0.07009678334,0.05742133409,0.01435533352
25.30565148,-0.1113301888,-0.2050980031,0.1608102769
25.31565148,-0.1229366288,-0.4906775057,0.3546072841
25.32565148,-0.08781187981,-0.7648032904,0.5569564104
25.33565148,-0.03726277873,-0.8950703144,0.7160868049
25.34565148,0.02764165215,-0.8648324609,0.924849987
25.35565148,0.1556179225,-0.7664831877,1.114370942
25.36565148,0.2930625975,-0.7567093372,1.170417786
25.37565148,0.4097378552,-0.5410739183,1.005331516
25.38565148,0.4659374654,-0.1899790913,0.7910705209
25.39565148,0.4711298347,0.116217114,0.641255796
25.40565148,0.4046982229,0.3512475193,0.5778785348
25.41565148,0.282830596,0.4908302128,0.5777258277
25.42565148,0.1876883507,0.4369213581,0.6105598211
25.43565148,0.09025534242,0.1363756657,0.677449584
25.44565148,-0.003512475174,-0.2686280012,0.7840455174
25.45565148,-0.125838235,-0.6362161636,0.9385944605
25.46565148,-0.2806925774,-0.9587529898,1.089630842
25.47565148,-0.3790418804,-1.157436967,1.126588225
25.48565148,-0.401491195,-1.253953576,1.015105367
25.49565148,-0.3084869385,-1.12689364,0.837343514
25.50565148,-0.1522581577,-0.8118399382,0.7276932001
25.51565148,0.06505715102,-0.6001750827,0.5734497309
25.52565148,0.4302018583,-0.5384777188,0.3558290005
25.53565148,0.7838928103,-0.4395175576,0.2299907655
25.54565148,1.147510409,0.09346238524,0.1296561509
25.55565148,1.330464482,0.6536257863,0.06887505949
25.56565148,1.408502579,1.155298948,-0.02871066704
25.57565148,1.34497261,1.348790407,-0.1203404516
25.58565148,1.222646832,1.402088404,-0.2296853364
25.59565148,1.097877502,1.36513114,-0.2406809032
25.60565148,1.066112518,1.352608323,-0.2638937831
25.61565148,1.031293273,1.281289816,-0.2751947939
25.62565148,0.9450085163,1.193172574,-0.2767219543
25.63565148,0.7984008789,1.009912968,-0.2457205504
25.64565148,0.695928216,0.8431467414,-0.2232712507
25.65565148,0.6519459486,0.7052439451,-0.1994474977
25.66565148,0.657138288,0.5691736937,-0.1782199293
25.67565148,0.6441574097,0.41309762,-0.1351539344
25.68565148,0.5864306092,0.3017674387,-0.07452555746
25.69565148,0.5146539807,0.2527455091,-0.01725694351
25.70565148,0.4189008474,0.2513710558,0.05726861581
25.71565148,0.3373503387,0.3040581644,0.1212567538
25.72565148,0.271376878,0.3924809098,0.1681406647
25.73565148,0.2177734673,0.4627304375,0.2113593817
25.74565148,0.169209674,0.5343543887,0.2570215464
25.75565148,0.112093769,0.5969680548,0.3320052624
25.76565148,0.05955936015,0.5737552047,0.4491386712
25.77565148,0.01863138936,0.5126686692,0.5477933884
25.78565148,-0.04932736978,0.4451680481,0.6305656433
25.79565148,-0.122020334,0.3559817076,0.6753115058
25.80565148,-0.1635591686,0.2229658216,0.6991352439
25.81565148,-0.1598939747,0.106443271,0.6948592067
25.82565148,-0.1110247597,0.0190895386,0.6356052756
25.83565148,-0.00244346098,-0.04031710699,0.5264131427
25.84565148,0.1360702366,-0.02580905706,0.3956879675
25.85565148,0.2614503205,0.06444628537,0.2689334154
25.86565148,0.3462078869,0.1676825136,0.188910082
25.87565148,0.4286746979,0.2681698501,0.1464549452
25.88565148,0.4925101101,0.2698497176,0.1696678251
25.89565148,0.5351179838,0.1890627891,0.2460259795
25.90565148,0.5250386596,0.1111774743,0.3274237812
25.91565148,0.4735732675,0.09453139454,0.3628539443
25.92565148,0.3984368443,0.1244637966,0.3436116874
25.93565148,0.2942843437,0.2021963894,0.2635883391
25.94565148,0.1035416573,0.2437352389,0.1469130963
25.95565148,-0.07666359097,0.2092213482,0.0262672063
25.96565148,-0.2919935882,0.1232420653,-0.1411098689
25.97565148,-0.4349360466,0.04902193695,-0.3182607889
25.98565148,-0.511141479,0.04428773001,-0.4977024496
25.99565148,-0.578794837,0.05635231733,-0.6061310172
26.00565148,-0.6954700947,0.05574145541,-0.708450973
26.01565148,-0.8633053303,0.1229366288,-0.7982481718
26.02565148,-1.127199054,0.3413209617,-0.9039278626
26.03565148,-1.468672752,0.6850853562,-1.012661815
26.04565148,-1.745089293,1.03556931,-1.099404693
26.05565148,-2.069764137,1.416138411,-1.178664446
26.06565148,-2.308765173,1.603826642,-1.224784851
26.07565148,-2.391384602,1.623985291,-1.27334857
26.08565148,-2.340377569,1.454012036,-1.249982953
26.09565148,-2.131156206,1.29656148,-1.17790091
26.10565148,-1.904830575,0.8223773241,-1.005026102
26.11565148,-1.562287807,1.294576168,-0.7785477638
26.12565148,-1.54564178,-0.5849034786,-0.7458664775
26.13565148,-1.421025276,-0.9743300676,-0.8104654551
26.14565148,-1.165989041,-0.7185302377,-0.8619308472
26.15565148,-0.8521569967,-0.236099422,-1.019839525
26.16565148,-0.5910121202,0.2434297949,-1.203251839
26.17565148,-0.4520402849,0.5534439087,-1.336115003
26.18565148,-0.4082106948,0.6914994717,-1.370934367
26.19565148,-0.4037819207,0.5120577812,-1.286482215
26.20565148,-0.3437644243,0.1924225539,-1.222341299
26.21565148,-0.3060434759,-0.1113301888,-1.208138704
26.22565148,-0.2354885489,-0.507781744,-1.201877356
26.23565148,-0.1530217379,-0.8562803864,-1.184314966
26.24565148,-0.1107193232,-1.254411817,-1.180344343
26.25565148,-0.04627304152,-1.643532991,-1.176526427
26.26565148,-0.006414085161,-1.922698379,-1.145066857
26.27565148,0.03161227703,-2.144747972,-1.049924612
26.28565148,0.06108652428,-2.240806341,-0.9124799371
26.29565148,0.1293507218,-2.193158865,-0.7426594496
26.30565148,0.2144137025,-2.098780155,-0.5922338367
26.31565148,0.3449861407,-1.89475131,-0.41309762
26.32565148,0.4831944108,-1.61833477,-0.2446515262
26.33565148,0.5688682795,-1.357037187,-0.09193521738
26.34565148,0.5951354504,-1.163851023,0.04214970022
26.35565148,0.5807801485,-1.077566266,0.1365283877
26.36565148,0.5450445414,-1.06137836,0.2490803003
26.37565148,0.4977024496,-1.105360627,0.35017851
26.38565148,0.4554000497,-1.167668939,0.4353941977
26.39565148,0.4294382632,-1.260062337,0.4813618064
26.40565148,0.3987422884,-1.369559884,0.4893030524
26.41565148,0.3353650272,-1.414153099,0.44043383
26.42565148,0.2608394623,-1.340849161,0.3286454976
26.43565148,0.2060143054,-1.162934661,0.2002110779
26.44565148,0.1250746548,-0.846506536,0.02504547499
26.45565148,0.01954768784,-0.5230533481,-0.1548543423
26.46565148,-0.03863722831,-0.2616030276,-0.3353650272
26.47565148,-0.01817324013,-0.1134682223,-0.4578435123
26.48565148,0.02443460934,-0.08949175477,-0.492051959
26.49565148,0.09056077152,-0.1869247705,-0.4780020416
26.50565148,0.1418734491,-0.3805690408,-0.4033237696
26.51565148,0.1627955884,-0.5980370641,-0.2678644061
26.52565148,0.1704314053,-0.7336491346,-0.1246165112
26.53565148,0.1609629989,-0.8636107445,0.07376197726
26.54565148,0.1597412676,-0.9674578309,0.2391537428
26.55565148,0.1724167168,-1.00258255,0.4086688459
26.56565148,0.2003637999,-0.9543242455,0.5896376967
26.57565148,0.2374738604,-0.8639161587,0.7133378983
26.58565148,0.3003929853,-0.7690793276,0.7735081315
26.59565148,0.4007275999,-0.7483099103,0.7588473558
26.60565148,0.4961752892,-0.7200574279,0.7197519541
26.61565148,0.5164865851,-0.6656904221,0.6980662346
26.62565148,0.4153883755,-0.5148066878,0.6989825368
26.63565148,0.1997529417,-0.3382666409,0.7064656615
26.64565148,0.0004581489484,-0.2976440787,0.7069237828
26.65565148,-0.08949175477,-0.3831652105,0.7139487267
26.66565148,-0.1128573567,-0.594524622,0.7336491346
26.67565148,-0.08872817457,-0.904538691,0.755182147
26.68565148,-0.07513642311,-1.248914003,0.7643451095
26.69565148,-0.07345654815,-1.632537365,0.7499898076
26.70565148,-0.09376781434,-2.018909693,0.7443392873
26.71565148,-0.1027780771,-2.433076382,0.6921103001
26.72565148,-0.0833831057,-2.757292986,0.6047565937
26.73565148,-0.01771509275,-2.933680296,0.4951062799
26.74565148,0.0850629881,-2.908634901,0.381485343
26.75565148,0.2382374406,-2.765234232,0.2501493096
26.76565148,0.4172209501,-2.522109985,0.1059851199
26.77565148,0.5992587805,-2.00669241,-0.06001751125
26.78565148,0.8026769161,-1.631162882,-0.153632611
26.79565148,0.9650143981,-1.210124016,-0.1565342247
26.80565148,1.04228878,-0.7411322594,-0.1371392459
26.81565148,1.019381404,-0.5647448897,-0.1519527286
26.82565148,0.9347765446,-0.5766568184,-0.1627955884
26.83565148,0.8509352803,-0.7677049041,-0.1356120855
26.84565148,0.8323038816,-1.078329921,-0.07987063378
26.85565148,0.8949176073,-1.297477722,-0.03359758854
26.86565148,0.9587529898,-1.414458513,-0.009926560335
26.87565148,0.9651671052,-1.434158921,-0.008857546374
26.88565148,0.9117164016,-1.370934367,-0.01939497143
26.89565148,0.7756461501,-1.289078355,-0.01740965992
26.90565148,0.5826127529,-1.264338374,-0.003512475174
26.91565148,0.3634648323,-1.308626056,0.03069597855
26.92565148,0.2014328092,-1.315345645,0.05421429127
26.93565148,0.0415388383,-1.288009405,0.09361509979
26.94565148,-0.05268712714,-1.20111382,0.1553124934
26.95565148,-0.06948592514,-1.11345458,0.2327396572
26.96565148,-0.06505715102,-1.072068453,0.2976440787
26.97565148,-0.06246097013,-1.073595643,0.35017851
26.98565148,-0.05619960278,-1.082300544,0.397673279
26.99565148,-0.03252857551,-1.116661668,0.4376849532
27.00565148,-0.01023199316,-1.128878951,0.4767803252
27.01565148,0.004428773187,-1.126282811,0.4912883639
27.02565148,0.01007927675,-1.084591269,0.4867068827
27.03565148,0.003054326167,-0.9938777685,0.4749477208
27.04565148,-0.03100141138,-0.9143125415,0.4448626041
27.05565148,-0.09453139454,-0.8313875794,0.3953825235
27.06565148,-0.2107485086,-0.770911932,0.3153591752
27.07565148,-0.3051272035,-0.7924449444,0.2299907655
27.08565148,-0.3289509416,-0.8584184051,0.161268428
27.09565148,-0.2635883391,-0.8964447379,0.06704246253
27.10565148,-0.1779145002,-0.8767443299,-0.001374446787
27.11565148,-0.05146539584,-0.7560984492,-0.05955936015
27.12565148,0.09269879758,-0.590095818,-0.084604837
27.13565148,0.2302961946,-0.4757113159,-0.07681630552
27.14565148,0.3355177343,-0.4379903674,-0.03787364438
27.15565148,0.452498436,-0.4654793143,0.04367686436
27.16565148,0.5061018467,-0.5364924073,0.1579086632
27.17565148,0.4326453209,-0.6618725061,0.2916881442
27.18565148,0.3046690524,-0.7483099103,0.3622430861
27.19565148,0.133626774,-0.8214610219,0.3791945875
27.20565148,-0.02580905706,-0.8315402865,0.3428481221
27.21565148,-0.1959350258,-0.7851145267,0.2567161322
27.22565148,-0.3402519524,-0.7296785116,0.1290452778
27.23565148,-0.416762799,-0.6931793094,0.02809980139
27.24565148,-0.4899139404,-0.6443101168,-0.08261952549
27.25565148,-0.5531384945,-0.5929974318,-0.1860084683
27.26565148,-0.6323982477,-0.5270239711,-0.2906191349
27.27565148,-0.7086036801,-0.5236642361,-0.3782783151
27.28565148,-0.8411614299,-0.4263839424,-0.5141957998
27.29565148,-1.097113967,-0.2704605758,-0.6314819455
27.30565148,-1.516472936,-0.09896016866,-0.7567093372
27.31565148,-1.934304833,0.04016438872,-0.8199338913
27.32565148,-2.338392258,0.05803219974,-0.8765916228
27.33565148,-2.48942852,-0.05864306539,-0.9135489464
27.34565148,-2.473546028,-0.2779437006,-0.9184358716
27.35565148,-2.406198263,-0.6009386778,-0.9092729092
27.36565148,-2.161393881,-0.6478226185,-1.021061301
27.37565148,-1.839773417,-0.7747298479,-1.157742381
27.38565148,-1.55953896,-0.916908741,-1.250593901
27.39565148,-1.452637553,-1.159116745,-1.364367485
27.40565148,-1.380402684,-1.254869938,-1.404073715
27.41565148,-1.154535294,-1.478904724,-1.461800575
27.42565148,-0.8804095387,-1.506393671,-1.47707212
27.43565148,-0.6372851729,-1.511280656,-1.449430466
27.44565148,-0.4297437072,-1.510211587,-1.431562662
27.45565148,-0.3052799106,-1.443780065,-1.448514223
27.46565148,-0.1574505121,-1.370934367,-1.483791709
27.47565148,-0.02748893574,-1.361924052,-1.516931176
27.48565148,0.09117163718,-1.321301579,-1.51677835
27.49565148,0.1861611903,-1.358258843,-1.508684397
27.50565148,0.2722931802,-1.598939776,-1.512502313
27.51565148,0.3367394805,-2.00256896,-1.538005948
27.52565148,0.4199698567,-2.432465315,-1.666134953
27.53565148,0.4390594065,-2.715754271,-1.610393524
27.54565148,0.4938845634,-2.796388388,-1.5621351
27.55565148,0.5293147564,-2.875037193,-1.453859329
27.56565148,0.4868595898,-3.141374588,-1.257466078
27.57565148,0.5383250117,-3.120910645,-1.095128655
27.58565148,0.5991060734,-3.056006193,-0.9752463698
27.59565148,0.6976081133,-2.966208935,-0.830776751
27.60565148,0.7924449444,-2.869081259,-0.6864598393
27.61565148,0.8445212245,-2.79211235,-0.5201517344
27.62565148,0.8451320529,-2.732858419,-0.3927863538
27.63565148,0.7538077235,-2.67604804,-0.1896736622
27.64565148,0.6320928335,-2.651613235,0.003512475174
27.65565148,0.5322163701,-2.713768959,0.1815796942
27.66565148,0.4583016634,-2.795166731,0.338724792
27.67565148,0.3979786932,-2.878549814,0.4459316432
27.68565148,0.3014619946,-2.92314291,0.554512918
27.69565148,0.1852448881,-2.847395658,0.5879577994
27.70565148,0.1006400511,-2.75240612,0.5325217843
27.71565148,0.04596760869,-2.693610191,0.445015341
27.72565148,0.001069014193,-2.63328743,0.2964223623
27.73565148,0.022143865,-2.445599079,0.1046106741
27.74565148,0.0125227375,-2.133446932,-0.04749477282
27.75565148,-0.05574145541,-1.841911435,-0.149661988
27.76565148,-0.1362229437,-1.676825047,-0.2182316035
27.77565148,-0.1986839175,-1.581530094,-0.2981022298
27.78565148,-0.1924225539,-1.590845823,-0.3556762934
27.79565148,-0.1389718503,-1.645518303,-0.3413209617
27.80565148,-0.1049161032,-1.733788252,-0.2893974185
27.81565148,-0.1197295859,-1.839773417,-0.220369637
27.82565148,-0.133626774,-1.907579422,-0.1583668143
27.83565148,-0.1156062484,-1.982715845,-0.07590000331
27.84565148,-0.06429356337,-2.059684992,-0.02260201424
27.85565148,0.03970624134,-2.134974003,0.05742133409
27.86565148,0.1499674171,-2.104888916,0.1537853181
27.87565148,0.2428189367,-2.058921337,0.2356412709
27.88565148,0.3562871516,-2.108248711,0.2901609838
27.89565148,0.4943426847,-2.155896187,0.3165809214
27.90565148,0.4427245855,-1.9231565,0.464410305
27.91565148,0.1893682331,-1.417818189,0.5994115472
27.92565148,0.01389718428,-0.9757044911,0.5287038684
27.93565148,0.004428773187,-0.7948883772,0.4271475375
27.94565148,0.02306016348,-0.8150469661,0.3428481221
27.95565148,0.02871066704,-1.115439892,0.3350595832
27.96565148,0.0313068442,-1.569160104,0.3717114925
27.97565148,0.02183843218,-2.057546854,0.4277583957
27.98565148,0.01954768784,-2.402380228,0.4746423066
27.99565148,0.01985312067,-2.776382446,0.511752367
28.00565148,0.03634648025,-3.158478737,0.4706716835
28.01565148,0.1559233516,-3.324175835,0.3034473062
28.02565148,0.3307835162,-3.166878223,0.1246165112
28.03565148,0.6003278494,-2.778978825,-0.08628471941
28.04565148,0.8081747293,-2.260659456,-0.2645046413
28.05565148,0.9152288437,-1.720502019,-0.416762799
28.06565148,0.9130908251,-1.415222049,-0.4236350358
28.07565148,0.8407033086,-1.303586483,-0.3546072841
28.08565148,0.7614435554,-1.356120825,-0.3205515444
28.09565148,0.6887505651,-1.325119376,-0.3239113092
28.10565148,0.6476698518,-1.282511592,-0.3492622077
28.11565148,0.6461427212,-1.246775985,-0.377209276
28.12565148,0.6466008425,-1.186452985,-0.4109596014
28.13565148,0.5725334287,-1.150564671,-0.3984368443
28.14565148,0.3950771093,-1.193325281,-0.3397938013
28.15565148,0.1965458989,-1.222952247,-0.2651155293
28.16565148,-0.0232128799,-1.112843752,-0.2263255715
28.17565148,-0.05558873713,-1.077566266,-0.2444988191
28.18565148,-0.01527163107,-0.9402743578,-0.1595885456
28.19565148,0.04214970022,-0.9033169746,-0.06780604273
28.20565148,0.04932736978,-0.8767443299,0.005497787148
28.21565148,0.01282817032,-0.9118691087,0.09941831976
28.22565148,-0.03405573592,-0.9975429177,0.1808161139
28.23565148,-0.06383541971,-1.066876173,0.2548835278
28.24565148,-0.0719293803,-1.110247612,0.3182607889
28.25565148,-0.06780604273,-1.143845201,0.4059199691
28.26565148,-0.05314527452,-1.13666749,0.4767803252
28.27565148,-0.04046982154,-1.063210964,0.530841887
28.28565148,-0.03375030309,-0.9934195876,0.5580254197
28.29565148,-0.04581489414,-0.9042332768,0.5829181671
28.30565148,-0.07254024595,-0.8139779568,0.6079636216
28.31565148,-0.113926366,-0.7312057018,0.625526011
28.32565148,-0.173180297,-0.7061602473,0.6378960609
28.33565148,-0.2327396572,-0.7535023093,0.6462954283
28.34565148,-0.326507479,-0.9407324791,0.6333145499
28.35565148,-0.4228714705,-1.237002134,0.5940664411
28.36565148,-0.4627304375,-1.522734284,0.5145012736
28.37565148,-0.3949243724,-1.664913177,0.4207334518
28.38565148,-0.2167044431,-1.697747231,0.2958115041
28.39565148,0.02718350291,-1.550834179,0.1472185254
28.40565148,0.2605340183,-1.332907915,0.007635815535
28.41565148,0.4509712756,-1.12170136,-0.1075122803
28.42565148,0.5474879742,-0.9804387093,-0.1826487035
28.43565148,0.5832235813,-0.8767443299,-0.2286163121
28.44565148,0.5455026627,-0.7964155674,-0.2232712507
28.45565148,0.4298964143,-0.7733554244,-0.1924225539
28.46565148,0.2765692472,-0.7874053121,-0.1737911552
28.47565148,0.05100724846,-0.8179485798,-0.1797471046
28.48565148,-0.1446223408,-0.7869471312,-0.2133446932
28.49565148,-0.2848159075,-0.657138288,-0.2490803003
28.50565148,-0.342695415,-0.5203045011,-0.2776382565
28.51565148,-0.346360594,-0.4195117056,-0.3124575615
28.52565148,-0.2510656118,-0.3741549551,-0.35017851
28.53565148,-0.1171334088,-0.389732033,-0.3761402667
28.54565148,-0.01023199316,-0.3883575797,-0.3946189582
28.55565148,0.03527746722,-0.290771842,-0.4308127165
28.56565148,0.006872233935,-0.1597412676,-0.4825835526
28.57565148,-0.1137736514,-0.1447750628,-0.5287038684
28.58565148,-0.2941316068,-0.1563815027,-0.5760459304
28.59565148,-0.4499022663,-0.1737911552,-0.605214715
28.60565148,-0.6588181853,-0.1576032341,-0.6267477274
28.61565148,-0.8546004891,-0.1094975919,-0.6383541822
28.62565148,-1.025337338,-0.1015563458,-0.6391177773
28.63565148,-1.186300278,-0.08017606288,-0.6314819455
28.64565148,-1.312138557,-0.03252857551,-0.6163630486
28.65565148,-1.446987033,0.0601702258,-0.5899431109
28.66565148,-1.551445007,0.1852448881,-0.5745187402
28.67565148,-1.634675384,0.2799290121,-0.5713117123
28.68565148,-1.646892667,0.2797762752,-0.5713117123
28.69565148,-1.557553649,0.1815796942,-0.6026185751
28.70565148,-1.43782413,-0.1035416573,-0.6800457239
28.71565148,-1.266781807,-0.3776674271,-0.8709411025
28.72565148,-1.110553026,-0.4105014503,-1.030071497
28.73565148,-0.9474520087,-0.5146539807,-1.154229879
28.74565148,-0.8254316449,-0.5609270334,-1.186452985
28.75565148,-0.7246388793,-0.5743660331,-1.229366302
28.76565148,-0.5520694852,-0.5360342264,-1.364978433
28.77565148,-0.3993531466,-0.5710062981,-1.410640597
28.78565148,-0.252287358,-0.6647741199,-1.443169117
28.79565148,-0.1592831165,-0.7542658448,-1.465771198
28.80565148,-0.04627304152,-0.7628179789,-1.468367338
28.81565148,0.04627304152,-0.8000807762,-1.429730058
28.82565148,0.1701259762,-0.8981246352,-1.407280803
28.83565148,0.2735149264,-0.9179777503,-1.381929874
28.84565148,0.3329215646,-0.9662361145,-1.385900497
28.85565148,0.3900374472,-1.13972187,-1.384526134
28.86565148,0.4622722864,-1.220966935,-1.396132469
28.87565148,0.5009095073,-1.278846383,-1.297630548
28.88565148,0.4618141353,-1.388191223,-1.106429696
28.89565148,0.3912591934,-1.558164477,-0.8764389157
28.90565148,0.3512475193,-1.696830988,-0.705091238
28.91565148,0.3228422701,-1.792736769,-0.507781744
28.92565148,0.3480404615,-1.725999713,-0.3315471113
28.93565148,0.3869831264,-1.573283434,-0.1660026312
28.94565148,0.417373687,-1.422857881,-0.03588833287
28.95565148,0.4083634019,-1.25578618,0.1163698286
28.96565148,0.3543018401,-1.139569163,0.2574796975
28.97565148,0.2933680415,-1.061225653,0.3837760985
28.98565148,0.2367102802,-1.034347534,0.4975497425
28.99565148,0.1800525337,-1.013425469,0.5917757154
29.00565148,0.1320996135,-1.002124429,0.6846272349
29.01565148,0.1200350225,-1.019686818,0.7225008607
29.02565148,0.1467603743,-1.101542711,0.7208209634
29.03565148,0.169056952,-1.119410515,0.6876815557
29.04565148,0.2089159191,-1.06962502,0.6243042946
29.05565148,0.2281581759,-0.9133962393,0.5653557777
29.06565148,0.1404990107,-0.6540839672,0.4948008358
29.07565148,-0.03252857551,-0.3289509416,0.3431535661
29.08565148,-0.1505782902,-0.1059851199,0.1345430762
29.09565148,-0.1879937798,-0.07406741381,-0.1826487035
29.10565148,-0.1029307917,-0.2237294018,-0.416762799
29.11565148,0.07666359097,-0.3827070892,-0.5717698932
29.12565148,0.2331978083,-0.4382958114,-0.640644908
29.13565148,0.3918700516,-0.3533855379,-0.6013968587
29.14565148,0.4289801121,-0.1345430762,-0.4233296216
29.15565148,0.3663664162,0.0975857228,-0.1704314053
29.16565148,0.2869539559,0.1960877478,0.02916881628
29.17565148,0.2209804952,0.1718058437,0.3051272035
29.18565148,0.2432770878,0.06108652428,0.6218608022
29.19565148,0.2979495227,-0.08567385375,0.9042332768
29.20565148,0.3756821156,-0.3371976018,1.084591269
29.21565148,0.4408919811,-0.5720753074,1.124755621
29.22565148,0.5198463202,-0.8382598162,1.093906879
29.23565148,0.6053674817,-1.031751394,0.9937250614
29.24565148,0.6640105247,-1.123686671,0.8967501521
29.25565148,0.7017314434,-1.100931883,0.850477159
29.26565148,0.7385360599,-0.9776898026,0.8083274364
29.27565148,0.7170031071,-0.6921103001,0.7646505833
29.28565148,0.6116288304,-0.4873177409,0.7672467232
29.29565148,0.4760167301,-0.4338670373,0.7958046794
29.30565148,0.3378084898,-0.4845688641,0.8239045143
29.31565148,0.1096503139,-0.7299839854,0.8619308472
29.32565148,-0.1765400618,-1.171028733,0.9004153609
29.33565148,-0.4494441152,-1.585958838,0.8802568316
29.34565148,-0.621555388,-1.805565,0.8049677014
29.35565148,-0.7069237828,-1.863597155,0.6864598393
29.36565148,-0.705091238,-1.704619408,0.559094429
29.37565148,-0.6401867867,-1.584126353,0.3972151279
29.38565148,-0.4891503453,-1.362076759,0.2382374406
29.39565148,-0.1866193265,-0.8550586104,0.06459899992
29.40565148,0.14156802,-0.3284927905,-0.05024366826
29.41565148,0.3950771093,-0.05436700583,-0.1371392459
29.42565148,0.5581781268,0.1907426715,-0.2374738604
29.43565148,0.6508769393,0.3503312171,-0.3002402782
29.44565148,0.7415903807,0.5868887901,-0.3443752825
29.45565148,0.7925976515,0.6342308521,-0.366061002
29.46565148,0.8524624705,0.5479460955,-0.3715587854
29.47565148,0.8923214078,0.5041165352,-0.3681990206
29.48565148,0.9153815508,0.5313000679,-0.3570507467
29.49565148,0.897208333,0.6155994534,-0.3419318199
29.50565148,0.8466592431,0.6392704844,-0.28313604
29.51565148,0.7881689072,0.483805269,-0.2105957866
29.52565148,0.7843509912,0.3891211748,-0.1660026312
29.53565148,0.7904596329,0.2857322097,-0.09330966324
29.54565148,0.7759515643,0.1525636017,0.00244346098
29.55565148,0.7318165898,0.03894266114,0.08246681094
29.56565148,0.6757696867,0.007330383174,0.1287398487
29.57565148,0.5925393105,0.09208793938,0.1721112877
29.58565148,0.5201517344,0.2171625942,0.2412917763
29.59565148,0.4703662395,0.3807217777,0.2641992271
29.60565148,0.4627304375,0.4196644127,0.2864958048
29.61565148,0.432492584,0.3712533414,0.3411682248
29.62565148,0.4112650156,0.3055853248,0.4225660264
29.63565148,0.3949243724,0.2275473028,0.5357288122
29.64565148,0.354149133,0.1394299865,0.6586654782
29.65565148,0.3026837409,0.1348485053,0.7136433125
29.66565148,0.252287358,0.153632611,0.7602217793
29.67565148,0.2370157093,0.08597928286,0.7819074988
29.68565148,0.2562579811,0.006414085161,0.790001452
29.69565148,0.302531004,-0.06536258012,0.7638869882
29.70565148,0.3904955983,-0.1435533315,0.6913467646
29.71565148,0.4769330323,-0.1959350258,0.5858197808
29.72565148,0.5198463202,-0.1960877478,0.4673119187
29.73565148,0.5068654418,-0.141720742,0.3602577746
29.74565148,0.475558579,-0.09254608303,0.2897028327
29.75565148,0.4358523488,-0.05589416996,0.2252565622
29.76565148,0.4074471295,-0.04489859566,0.1875356287
29.77565148,0.3633120954,-0.04169155285,0.173027575
29.78565148,0.2909245789,-0.04978551716,0.1634064466
29.79565148,0.2038762718,-0.07498370856,0.1206458881
29.80565148,0.1438587606,-0.08872817457,0.04382958263
29.81565148,0.02458732575,-0.07467827946,-0.07070764899
29.82565148,-0.09483683109,-0.05207626149,-0.1985312104
29.83565148,-0.2588541508,0.007177666761,-0.3761402667
29.84565148,-0.3982841372,0.04948008433,-0.5552765131
29.85565148,-0.5309945941,0.06108652428,-0.7002043128
29.86565148,-0.6950119138,0.1175915599,-0.8203920126
29.87565148,-0.8359690905,0.1951714456,-0.9297369123
29.88565148,-1.082605958,0.405156374,-1.05878222
29.89565148,-1.415222049,0.7232644558,-1.166294456
29.90565148,-1.768149495,1.101390004,-1.280984402
29.91565148,-2.064571857,1.382998943,-1.368032694
29.92565148,-2.382985353,1.637424231,-1.460120678
29.93565148,-2.498744249,1.772730947,-1.54823792
29.94565148,-2.373211384,1.861001015,-1.523650646
29.95565148,-2.073429346,1.627803206,-1.330006361
29.96565148,-1.778839588,1.425148606,-1.110705733
29.97565148,-1.489594936,0.9219483733,-0.8697193861
29.98565148,-1.165989041,0.5239696503,-0.755182147
29.99565148,-0.8921687007,0.5221370459,-0.7678576112
30.00565148,-0.8191702962,0.6908885837,-0.7646505833
30.01565148,-0.6545420885,1.006858587,-1.022130251
30.02565148,-0.4694499373,1.353830099,-1.314734697
30.03565148,-0.5755877495,1.185078621,-1.398423314
30.04565148,-0.562454164,0.9900598526,-1.34344542
30.05565148,-0.4763221741,0.6316346526,-1.31610918
30.06565148,-0.4184426963,0.1695151031,-1.215011001
30.07565148,-0.3326161206,-0.1559233516,-1.158200502
30.08565148,-0.2538145185,-0.507170856,-1.132238746
30.09565148,-0.2409863323,-0.7855727077,-1.081231475
30.10565148,-0.2696970105,-1.190423608,-1.080926061
30.11565148,-0.2603813112,-1.480890036,-1.077566266
30.12565148,-0.220522359,-1.645060062,-1.023657441
30.13565148,-0.1740965992,-1.727068782,-0.9436340928
30.14565148,-0.09254608303,-1.766164184,-0.8242099285
30.15565148,0.004886921961,-1.695914626,-0.6800457239
30.16565148,0.114079088,-1.553430319,-0.5122104883
30.17565148,0.2408336252,-1.347110629,-0.3318525553
30.18565148,0.3225368559,-1.179122686,-0.1687515229
30.19565148,0.3723223805,-1.000749946,0.04092797264
30.20565148,0.377209276,-0.8704829812,0.2015855312
30.21565148,0.3656028509,-0.8210029006,0.3251330256
30.22565148,0.3582724631,-0.8179485798,0.409432441
30.23565148,0.3562871516,-0.8466592431,0.5044219494
30.24565148,0.3497203588,-0.916908741,0.5723807216
30.25565148,0.3370448947,-1.001819015,0.6000223756
30.26565148,0.3243694305,-1.06809783,0.5911648273
30.27565148,0.3061962128,-1.10368073,0.5508477092
30.28565148,0.3173444867,-0.9928087592,0.4769330323
30.29565148,0.3133738637,-0.747240901,0.4013384581
30.30565148,0.2614503205,-0.3831652105,0.3142901659
30.31565148,0.1901318133,-0.04505131021,0.2234239578
30.32565148,0.09330966324,0.2771801054,0.04703662544
30.33565148,0.06123924255,0.3810271919,-0.1525636017
30.34565148,0.1134682223,0.3135266006,-0.2652682364
30.35565148,0.1768454909,0.2420553565,-0.2903137207
30.36565148,0.2261728644,0.1185078546,-0.236099422
30.37565148,0.2376265824,-0.01588249579,-0.07925976813
30.38565148,0.216246292,-0.1829541475,0.1383609772
30.39565148,0.1828014255,-0.3695734739,0.3572034538
30.40565148,0.1660026312,-0.519082725,0.5346598029
30.41565148,0.1814269722,-0.6783658266,0.7583891749
30.42565148,0.2057088763,-0.7539604306,0.9422596693
30.43565148,0.2570215464,-0.8313875794,1.076039076
30.44565148,0.3165809214,-0.888656199,1.133002281
30.45565148,0.4132503271,-0.8578075171,1.084133148
30.46565148,0.5210680366,-0.6310238242,0.8666650653
30.47565148,0.6235406995,-0.2386955917,0.6085745096
30.48565148,0.684779942,-0.008246680722,0.5413793325
30.49565148,0.7002043128,0.1644754708,0.5922338367
30.50565148,0.6201809645,0.07452555746,0.7226535678
30.51565148,0.4576907754,-0.2101376504,0.8921687007
30.52565148,0.2076941878,-0.5842925906,1.095739484
30.53565148,-0.02061670274,-0.9199630618,1.239598274
30.54565148,-0.2909245789,-1.233795047,1.376432061
30.55565148,-0.5412266254,-1.368032694,1.424843192
30.56565148,-0.7312057018,-1.397659659,1.296866894
30.57565148,-0.7712173462,-1.352608323,1.051757216
30.58565148,-0.6542366743,-1.282206178,0.7553348541
30.59565148,-0.2967278063,-1.098030329,0.5250386596
30.60565148,0.2287690341,-0.8749117255,0.271376878
30.61565148,0.7525860071,-0.3961461186,0.1058324054
30.62565148,1.119716048,0.1637118906,0.0251981914
30.63565148,1.498452425,1.008385777,-0.09422596544
30.64565148,1.71118629,1.537089705,-0.1785253733
30.65565148,1.749976158,1.802816033,-0.2661845386
30.66565148,1.73852253,1.835802794,-0.2758056521
30.67565148,1.731192112,1.718058467,-0.2727513313
30.68565148,1.728595972,1.621236324,-0.2709187269
30.69565148,1.678963184,1.553124905,-0.2686280012
30.70565148,1.587180614,1.423468709,-0.2680171132
30.71565148,1.427592039,1.078177214,-0.2402227521
30.72565148,1.270599723,0.7279986739,-0.1918116808
30.73565148,1.110094905,0.472198844,-0.1502728462
30.74565148,0.8988882303,0.3570507467,-0.1247692257
30.75565148,0.6539312601,0.1922698319,-0.0850629881
30.76565148,0.3376557529,0.04001167417,-0.02550362423
30.77565148,0.08872817457,0.02092213556,0.04321871698
30.78565148,-0.0731511116,0.1169806942,0.08796459436
30.79565148,-0.1649336219,0.2066251636,0.1069014147
30.80565148,-0.2385428846,0.3159700334,0.1272126883
30.81565148,-0.267406255,0.3681990206,0.1605048478
30.82565148,-0.2626720667,0.3949243724,0.2289217561
30.83565148,-0.2134974003,0.3898847401,0.330172658
30.84565148,-0.1420261711,0.3692680299,0.4373795092
30.85565148,-0.06704246253,0.3767511547,0.563065052
30.86565148,-0.02550362423,0.3891211748,0.6154467463
30.87565148,0.004276056774,0.3623957932,0.6360634565
30.88565148,0.02367102914,0.2780964077,0.629496634
30.89565148,0.06093380973,0.1230893433,0.5870414972
30.90565148,0.1276708394,-0.03023782931,0.5067127347
30.91565148,0.2304489166,-0.1267545372,0.4254676402
30.92565148,0.3167336285,-0.1609629989,0.3701843321
30.93565148,0.4053090811,-0.173180297,0.3052799106
30.94565148,0.4625777006,-0.1440114826,0.2553416789
30.95565148,0.5041165352,-0.1153008118,0.2457205504
30.96565148,0.5300782919,-0.133474052,0.2663372457
30.97565148,0.5279402733,-0.1569923609,0.2906191349
30.98565148,0.5057964325,-0.1548543423,0.2930625975
30.99565148,0.4879286289,-0.1044579595,0.2469422817
31.00565148,0.3988949955,-0.04489859566,0.1632537395
31.01565148,0.2525927722,-0.0410806872,0.05726861581
31.02565148,0.05360342562,-0.03863722831,-0.1084285825
31.03565148,-0.1244637966,-0.03985895589,-0.2448042482
31.04565148,-0.2741257846,-0.05681046844,-0.3643811047
31.05565148,-0.3998112977,-0.0293215327,-0.4787656367
31.06565148,-0.5300782919,-0.02061670274,-0.5444336534
31.07565148,-0.7266241908,-0.01496619824,-0.6258314252
31.08565148,-0.9121745229,0.1035416573,-0.707840085
31.09565148,-1.130253434,0.2854267955,-0.7773260474
31.10565148,-1.355662704,0.464715749,-0.8370380998
31.11565148,-1.642922044,0.7843509912,-0.9178250432
31.12565148,-1.904372454,1.12017417,-0.9680687189
31.13565148,-2.14642787,1.358258843,-1.043205142
31.14565148,-2.295173407,1.372919679,-1.12842083
31.15565148,-2.28310895,1.158811331,-1.168585181
31.16565148,-2.080606937,0.9437867999,-1.128573537
31.17565148,-1.84374404,0.6233879924,-1.030682325
31.18565148,-1.638951421,0.3089450896,-0.9375254512
31.19565148,-1.543503761,0.0006108652451,-0.8807149529
31.20565148,-1.345583439,-0.2432770878,-0.9188940525
31.21565148,-1.116814375,-0.1679879427,-0.9970847964
31.22565148,-0.4685336351,1.39659071,-1.076497316
31.23565148,-0.4470006526,0.652556777,-1.290452838
31.24565148,-0.4847215712,0.2773328125,-1.34497261
31.25565148,-0.4900666475,0.5480988622,-1.322675943
31.26565148,-0.3613267839,0.6696610451,-1.307557106
31.27565148,-0.2325869352,0.4637994468,-1.295492411
31.28565148,-0.2023491114,0.05543602258,-1.223257661
31.29565148,-0.1401935667,-0.3546072841,-1.209665895
31.30565148,-0.04657847434,-0.72356987,-1.250899315
31.31565148,0.007024950348,-1.017243385,-1.258687854
31.32565148,0.02351831272,-1.295492411,-1.221119642
31.33565148,0.03329215571,-1.61940372,-1.16553092
31.34565148,0.03588833287,-1.861306429,-1.100931883
31.35565148,0.04886921868,-2.027461767,-0.9578366876
31.36565148,0.04718934,-2.082134247,-0.8090910316
31.37565148,0.09056077152,-2.003179789,-0.6134614348
31.38565148,0.1831068546,-1.809535623,-0.397673279
31.39565148,0.2864958048,-1.594969153,-0.2014328092
31.40565148,0.3680463135,-1.393994451,-0.01740965992
31.41565148,0.3935499489,-1.25838244,0.1200350225
31.42565148,0.3860668242,-1.118341565,0.267406255
31.43565148,0.3643811047,-1.034653068,0.3788891733
31.44565148,0.3440698385,-0.9729556441,0.4842634201
31.45565148,0.3352122903,-0.9489791393,0.5577199459
31.46565148,0.3332269788,-0.9847147465,0.6062837839
31.47565148,0.3203988075,-1.047481179,0.6084218025
31.48565148,0.3010038435,-1.068403363,0.5754350424
31.49565148,0.2863430977,-0.9651671052,0.5210680366
31.50565148,0.2782491148,-0.7896960378,0.4657847583
31.51565148,0.2638937831,-0.4891503453,0.3953825235
31.52565148,0.2260201424,-0.1678352207,0.3263547719
31.53565148,0.1727221459,0.09193521738,0.240070045
31.54565148,0.117896989,0.1617265791,0.1501201391
31.55565148,0.09132435173,0.120187737,0.06078109145
31.56565148,0.1510364264,0.04642575979,0.01145372353
31.57565148,0.2454151064,-0.0594066456,0.03268129006
31.58565148,0.3023782969,-0.212275669,0.09040805697
31.59565148,0.3332269788,-0.4381431043,0.1989893466
31.60565148,0.3410155177,-0.475558579,0.3233004212
31.61565148,0.3196352422,-0.3000875413,0.4805982411
31.62565148,0.2761110961,-0.123852931,0.661108911
31.63565148,0.2599231601,-0.09651670605,0.7735081315
31.64565148,0.2939788997,-0.1753183305,0.9085093141
31.65565148,0.3425426781,-0.2316706479,0.9937250614
31.66565148,0.3675881624,-0.2730567753,0.9909761548
31.67565148,0.3964515328,-0.2342668176,0.912938118
31.68565148,0.4572326243,-0.1707368344,0.8472700715
31.69565148,0.5041165352,-0.08307767659,0.8294022679
31.70565148,0.5132794976,-0.02046398632,0.8529205918
31.71565148,0.4637994468,-0.09865473956,0.9184358716
31.72565148,0.3802636266,-0.3170390725,0.9882272482
31.73565148,0.2556470931,-0.7075346708,1.06809783
31.74565148,0.07452555746,-1.20523715,1.145219564
31.75565148,-0.2147191316,-1.82053113,1.21195662
31.76565148,-0.4123340547,-2.165975332,1.199433923
31.77565148,-0.49922961,-2.30479455,1.085354805
31.78565148,-0.3459024429,-2.085035801,0.8848382831
31.79565148,-0.01328631863,-1.523345232,0.6320928335
31.80565148,0.3714060783,-1.120021462,0.3075706363
31.81565148,0.7061602473,-0.8721628785,0.07406741381
31.82565148,1.0175488,-0.2626720667,-0.022143865
31.83565148,1.194699645,0.2571742535,-0.09285151958
31.84565148,1.246165156,0.6122397184,-0.1325577646
31.85565148,1.220814228,0.7925976515,-0.2060143054
31.86565148,1.106276989,0.9280570149,-0.3333797157
31.87565148,1.000749946,0.8043568134,-0.3497203588
31.88565148,0.9025533795,0.5765040517,-0.3422372639
31.89565148,0.8446739316,0.4851797223,-0.3547599912
31.90565148,0.8005388975,0.4773911834,-0.3535382748
31.91565148,0.7568620443,0.5355761051,-0.3349068761
31.92565148,0.7289149761,0.5167919993,-0.3141374588
31.93565148,0.6921103001,0.4046982229,-0.2866485119
31.94565148,0.6481280327,0.2666426897,-0.2542726696
31.95565148,0.5729916096,0.0719293803,-0.2087631971
31.96565148,0.4790710807,-0.102319926,-0.1461495161
31.97565148,0.3918700516,-0.1992947906,-0.08307767659
31.98565148,0.3324634135,-0.1660026312,-0.02046398632
31.99565148,0.2654209435,-0.08750644326,0.06307183951
32.00565148,0.2116648108,0.01313360315,0.1406517178
32.01565148,0.1673770845,0.1348485053,0.2109012306
32.02565148,0.1592831165,0.1982257664,0.275958389
32.03565148,0.1591303945,0.2249511331,0.3310889602
32.04565148,0.1786780804,0.2405281961,0.4166100919
32.05565148,0.2393064648,0.1963931769,0.5371032953
32.06565148,0.2603813112,0.1824959964,0.6566801667
32.07565148,0.232128799,0.1965458989,0.7177666426
32.08565148,0.1777617931,0.2289217561,0.7449501753
32.09565148,0.1530217379,0.2359467,0.7400632501
32.10565148,0.1780672222,0.1985312104,0.7032586336
32.11565148,0.2338086665,0.1404990107,0.649197042
32.12565148,0.3306308091,0.04764748737,0.5752823353
32.13565148,0.4308127165,-0.0232128799,0.5184718966
32.14565148,0.5074763298,-0.0833831057,0.4692972302
32.15565148,0.5377141237,-0.1502728462,0.4236350358
32.16565148,0.5276348591,-0.2434297949,0.3938553631
32.17565148,0.4871650338,-0.3601050675,0.3555235863
32.18565148,0.4289801121,-0.4389066696,0.3051272035
32.19565148,0.3924809098,-0.4645630121,0.2257147133
32.20565148,0.3480404615,-0.4499022663,0.1330159009
32.21565148,0.2257147133,-0.3865249753,-0.03481931984
32.22565148,0.02947424725,-0.3113885522,-0.2660318017
32.23565148,-0.2037235647,-0.2255619913,-0.5143485069
32.24565148,-0.4234823287,-0.120187737,-0.7318165898
32.25565148,-0.6035348773,-0.05894849449,-0.8484918475
32.26565148,-0.8260425329,-0.03878994286,-0.9395107627
32.27565148,-1.017090678,0.02076941915,-1.030376911
32.28565148,-1.233336926,0.2593123019,-1.130100727
32.29565148,-1.4445436,0.5896376967,-1.208444118
32.30565148,-1.747532725,1.015716195,-1.281442523
32.31565148,-2.07373476,1.322675943,-1.331686258
32.32565148,-2.347402334,1.409571528,-1.430799127
32.33565148,-2.458579779,1.359633327,-1.468825459
32.34565148,-2.390315771,1.295034289,-1.422857881
32.35565148,-2.207514286,0.9789115787,-1.290605545
32.36565148,-1.987450123,0.3949243724,-1.012050986
32.37565148,-1.762040854,-0.1078177169,-0.755182147
32.38565148,-1.51158607,-0.3213151097,-0.6870706677
32.39565148,-1.214705586,-0.4109596014,-0.7150177956
32.40565148,-0.9372199774,-0.184786737,-0.7191411257
32.41565148,-0.6788240075,0.2075414658,-0.8700248003
32.42565148,-0.5054910183,0.6239988208,-1.115898132
32.43565148,-0.3988949955,1.081689596,-1.395674348
32.44565148,-0.3875939846,1.274723053,-1.487456918
32.45565148,-0.448527813,1.017243385,-1.388649464
32.46565148,-0.4034765065,0.6036875844,-1.234711409
32.47565148,-0.3115412891,0.2869539559,-1.175457478
32.48565148,-0.2050980031,-0.2464841306,-1.16507268
32.49565148,-0.07467827946,-0.6113234162,-1.20264101
32.50565148,-0.007330383174,-0.9355401397,-1.193477988
32.51565148,-0.03970624134,-1.336115003,-1.112538338
32.52565148,-0.06261368841,-1.718058467,-1.019381404
32.53565148,-0.054061573,-1.93552649,-0.9191994667
32.54565148,0.00167987938,-1.966375232,-0.775493443
32.55565148,0.05787948146,-1.928501606,-0.6508769393
32.56565148,0.1330159009,-1.828166962,-0.4575380683
32.57565148,0.2109012306,-1.634828091,-0.2429716438
32.58565148,0.2887865305,-1.34344542,-0.02550362423
32.59565148,0.3339905739,-1.082911372,0.1736384481
32.60565148,0.3484986126,-0.9363036752,0.3037527502
32.61565148,0.3596469164,-0.8229882121,0.4349360466
32.62565148,0.3788891733,-0.7767151594,0.5389358401
32.63565148,0.4025602043,-0.8061894178,0.6108652353
32.64565148,0.4263839424,-0.8588765264,0.6372851729
32.65565148,0.4543310404,-0.9369145632,0.6209445
32.66565148,0.4613559842,-1.027169943,0.5496259928
32.67565148,0.4709770977,-1.007011414,0.4656320214
32.68565148,0.4725042582,-0.8139779568,0.381179899
32.69565148,0.4463897645,-0.5674937963,0.3178026378
32.70565148,0.3750712574,-0.2171625942,0.228310883
32.71565148,0.2721404731,0.08750644326,0.1287398487
32.72565148,0.181121543,0.2134974003,0.006261368748
32.73565148,0.1713477075,0.2078468949,-0.09392052889
32.74565148,0.2371684313,0.1330159009,-0.1872301996
32.75565148,0.3153591752,0.0484110713,-0.2390010208
32.76565148,0.3666718602,-0.04199698567,-0.2102903575
32.77565148,0.3856086731,-0.08399397135,-0.1055269688
32.78565148,0.3630066812,-0.1356120855,0.09804387391
32.79565148,0.2852740586,-0.2089159191,0.322384119
32.80565148,0.2463314086,-0.2156354338,0.5873469114
32.81565148,0.2751947939,-0.263435632,0.8410087228
32.82565148,0.3046690524,-0.3694207668,1.01495266
32.83565148,0.3313944042,-0.546571672,1.175152063
32.84565148,0.3573561609,-0.676838696,1.262200356
32.85565148,0.4013384581,-0.6635523438,1.181718826
32.86565148,0.4343251884,-0.5372560024,1.018770456
32.87565148,0.4714352489,-0.2464841306,0.8284859657
32.88565148,0.4714352489,-0.02168571576,0.7431175709
32.89565148,0.4347833395,0.1878410578,0.6954700947
32.90565148,0.3439171314,0.2996293902,0.6901249886
32.91565148,0.2458732575,0.2849686444,0.7218900323
32.92565148,0.1204931661,0.1922698319,0.8205447197
32.93565148,-0.03405573592,-0.04199698567,0.9660834074
32.94565148,-0.216551736,-0.4149302244,1.092532516
32.95565148,-0.3882048726,-0.7677049041,1.144608736
32.96565148,-0.6281222105,-1.284191489,1.160643935
32.97565148,-0.7783950567,-1.697136402,1.048702955
32.98565148,-0.7257078886,-1.710269928,0.8581129313
32.99565148,-0.5468770862,-1.455997348,0.707840085
33.00565148,-0.2012801021,-1.181260705,0.4889976382
33.01565148,0.2199114859,-1.200044751,0.2793181241
33.02565148,0.6389650702,-0.8979719281,0.1459967941
33.03565148,0.9640980959,-0.3176499307,0.07895433158
33.04565148,1.109483957,0.08521570265,0.008857546374
33.05565148,1.240209222,0.4725042582,-0.1504255682
33.06565148,1.365894675,0.7615962625,-0.3005456924
33.07565148,1.433700681,0.8414669037,-0.4039346576
33.08565148,1.469894528,0.9007207751,-0.4292855561
33.09565148,1.493107319,0.9121745229,-0.4463897645
33.10565148,1.489747643,0.9932668805,-0.4948008358
33.11565148,1.385442376,1.099099278,-0.5441282392
33.12565148,1.217301726,1.201266527,-0.5224425197
33.13565148,1.076650023,1.050993681,-0.4558582008
33.14565148,0.912938118,0.629496634,-0.3822489381
33.15565148,0.7750352621,0.2301434875,-0.2742784917
33.16565148,0.632856369,-0.01756237634,-0.1020144969
33.17565148,0.5138903856,-0.1252273768,0.06123924255
33.18565148,0.3747658134,-0.1902845204,0.2356412709
33.19565148,0.2593123019,-0.1823432744,0.3433062732
33.20565148,0.1701259762,-0.1039998084,0.4050036669
33.21565148,0.1314887404,-0.04688390717,0.4346306324
33.22565148,0.1113301888,-0.006719517522,0.4483750761
33.23565148,0.125838235,0.01664607786,0.4618141353
33.24565148,0.1504255682,0.01053742506,0.5009095073
33.25565148,0.1429424733,0.02504547499,0.5265658498
33.26565148,0.1046106741,0.04902193695,0.5377141237
33.27565148,0.03023782931,0.007788531948,0.5438227654
33.28565148,-0.05360342562,-0.07651086897,0.5239696503
33.29565148,-0.09346238524,-0.141720742,0.4845688641
33.30565148,-0.07620543987,-0.1473712474,0.4442517459
33.31565148,-0.01634064503,-0.1243110746,0.3856086731
33.32565148,0.06291911751,-0.07773260027,0.3271183372
33.33565148,0.153479889,-0.0545197241,0.2855795026
33.34565148,0.2306016237,-0.02764165215,0.2600758672
33.35565148,0.2695443034,-0.005192354787,0.2454151064
33.36565148,0.2883284092,-0.03176499158,0.231823355
33.37565148,0.271682322,-0.08842274547,0.240070045
33.38565148,0.231976077,-0.1563815027,0.2568688393
33.39565148,0.1944078654,-0.204639852,0.2469422817
33.40565148,0.1945605874,-0.2225076705,0.1736384481
33.41565148,0.1803579628,-0.1705841124,0.05665775016
33.42565148,0.06902777404,-0.0960585624,-0.1197295859
33.43565148,-0.04352414981,-0.0361937657,-0.3109304011
33.44565148,-0.2426662147,0.08552113175,-0.539394021
33.45565148,-0.4531092942,0.2351831198,-0.743270278
33.46565148,-0.6392704844,0.4045455158,-0.9349292517
33.47565148,-0.8417723179,0.6041457057,-1.083674908
33.48565148,-1.056033254,0.7776314616,-1.184925914
33.49565148,-1.37750113,1.093601465,-1.306029916
33.50565148,-1.764484286,1.441794753,-1.419498086
33.51565148,-2.190410137,1.64979434,-1.545794487
33.52565148,-2.437199593,1.533424497,-1.613142371
33.53565148,-2.535548925,1.309542418,-1.663080573
33.54565148,-2.389857531,1.122312188,-1.649641633
33.55565148,-2.065640926,0.8970556259,-1.514640331
33.56565148,-1.707673788,0.630107522,-1.294576168
33.57565148,-1.323745012,0.441044718,-1.137431145
33.58565148,-1.0015136,0.1791362315,-1.01495266
33.59565148,-0.9975429177,-0.07147123665,-0.9369145632
33.60565148,-0.8162686825,-0.0410806872,-0.9578366876
33.61565148,-0.6977608204,0.1191187203,-1.082911372
33.62565148,-0.4419609904,0.3010038435,-1.328937292
33.63565148,-0.3013092875,0.3333797157,-1.557400942
33.64565148,-0.2805398703,0.1117883399,-1.58534801
33.65565148,-0.2764165103,-0.1342376322,-1.434158921
33.66565148,-0.2167044431,-0.3242167234,-1.309542418
33.67565148,-0.1579086632,-0.53481251,-1.254564524
33.68565148,-0.1518000066,-0.8575021029,-1.203862667
33.69565148,-0.1435533315,-1.278235555,-1.135293007
33.70565148,-0.07773260027,-1.567327499,-1.05878222
33.71565148,0.0001527163113,-1.834275603,-0.9492846131
33.72565148,0.1090394482,-1.909870148,-0.8156577945
33.73565148,0.2145664245,-1.886199117,-0.6716463566
33.74565148,0.2938261926,-1.83442831,-0.5615378618
33.75565148,0.3765984178,-1.759597301,-0.405156374
33.76565148,0.4451680481,-1.611462474,-0.2335032374
33.77565148,0.495564431,-1.390023828,-0.05421429127
33.78565148,0.5030475259,-1.161713004,0.1288925707
33.79565148,0.475558579,-0.9960157871,0.2715296149
33.80565148,0.4283692539,-0.8269588351,0.4286746979
33.81565148,0.3831652105,-0.7276932001,0.5563455224
33.82565148,0.3498730659,-0.7052439451,0.6493497491
33.83565148,0.3292563558,-0.7217372656,0.7029531598
33.84565148,0.3220787048,-0.7441865802,0.7638869882
33.85565148,0.3240640163,-0.8008443117,0.7904596329
33.86565148,0.3199406862,-0.8778133392,0.7570147514
33.87565148,0.3281873465,-0.8541423082,0.6911939979
33.88565148,0.3547599912,-0.7024950385,0.5992587805
33.89565148,0.3677408695,-0.4321871698,0.5018258095
33.90565148,0.3236058652,-0.1119410545,0.3839288056
33.91565148,0.2133446932,0.192880705,0.2490803003
33.92565148,0.112246491,0.3443752825,0.1328631938
33.93565148,0.06368270516,0.4033237696,0.01114829071
33.94565148,0.1191187203,0.3824016452,-0.06475171447
33.95565148,0.1942551434,0.3588833213,-0.1065959856
33.96565148,0.2322815061,0.3495676219,-0.1029307917
33.97565148,0.2376265824,0.3173444867,-0.04214970022
33.98565148,0.1890627891,0.2732094824,0.08597928286
33.99565148,0.1426370293,0.1502728462,0.2550362349
34.00565148,0.1191187203,-0.04963280261,0.4395175576
34.01565148,0.1382082552,-0.2133446932,0.597273469
34.02565148,0.1919644028,-0.3999640048,0.7744244337
34.03565148,0.2945897579,-0.5749769211,0.9222537875
34.04565148,0.3941608071,-0.6957755089,1.005789638
34.05565148,0.4891503453,-0.7266241908,1.022435665
34.06565148,0.597884357,-0.6861543655,1.001819015
34.07565148,0.6850853562,-0.4723515511,0.8648324609
34.08565148,0.7644978762,-0.2105957866,0.6963863969
34.09565148,0.7935139537,-0.06520986557,0.6152940392
34.10565148,0.7498371005,0.106290549,0.573602438
34.11565148,0.6218608022,0.251981914,0.5600107312
34.12565148,0.4419609904,0.3100140989,0.5667302608
34.13565148,0.2393064648,0.2070833147,0.6165157557
34.14565148,0.06963863969,0.003665191587,0.6913467646
34.15565148,-0.1522581577,-0.3622430861,0.8020660877
34.16565148,-0.4039346576,-0.8069530129,0.897819221
34.17565148,-0.614377737,-1.210276723,0.897208333
34.18565148,-0.7015787363,-1.44607079,0.8119926453
34.19565148,-0.6858489513,-1.544420004,0.664926827
34.20565148,-0.5442809463,-1.47340703,0.5294674635
34.21565148,-0.3306308091,-1.372308731,0.4185954034
34.22565148,-0.05543602258,-1.159269571,0.3411682248
34.23565148,0.2150245607,-0.8579602242,0.2861903608
34.24565148,0.5467243791,-0.3191770911,0.1809688359
34.25565148,0.7793113589,0.1853975952,0.07345654815
34.26565148,0.9289733171,0.5346598029,-0.03726277873
34.27565148,1.033736706,0.7189884186,-0.1230893433
34.28565148,1.108109593,0.8784242272,-0.2127338201
34.29565148,1.112691045,0.8994990587,-0.2455678284
34.30565148,1.089783549,0.864985168,-0.2518292069
34.31565148,1.052062631,0.8411614299,-0.2518292069
34.32565148,0.9863946438,0.8920159936,-0.2441933751
34.33565148,0.8794932365,1.00823307,-0.2128865421
34.34565148,0.7874053121,1.015563488,-0.1589776874
34.35565148,0.7425066829,0.8590292335,-0.09010262042
34.36565148,0.7214318514,0.6487388611,-0.03145955876
34.37565148,0.6792821288,0.3561344445,0.03176499158
34.38565148,0.5980370641,0.1501201391,0.1017090604
34.39565148,0.4900666475,0.03940080851,0.176998198
34.40565148,0.3961461186,-0.0171042271,0.2328923792
34.41565148,0.2864958048,-0.08613199741,0.3023782969
34.42565148,0.196851328,-0.08842274547,0.3123048544
34.43565148,0.1420261711,-0.01069014147,0.3176499307
34.44565148,0.1079704314,0.06627888232,0.310777694
34.45565148,0.09896016866,0.1053742543,0.3182607889
34.46565148,0.07910704613,0.1233947799,0.3306308091
34.47565148,0.04596760869,0.1278235465,0.3613267839
34.48565148,0.006566801574,0.1369865239,0.4028656185
34.49565148,-0.03481931984,0.1128573567,0.4541783035
34.50565148,-0.1133155003,0.00122173049,0.535423398
34.51565148,-0.1760819107,-0.09544769675,0.5923865438
34.52565148,-0.1988366395,-0.1508837193,0.6189591885
34.53565148,-0.1774563491,-0.2044871449,0.5991060734
34.54565148,-0.1004873365,-0.275652945,0.5448917747
34.55565148,0.01237002108,-0.2703078687,0.4630358517
34.56565148,0.1267545372,-0.1840231568,0.3765984178
34.57565148,0.2249511331,-0.07956519723,0.3061962128
34.58565148,0.2785545588,-0.03955352306,0.2745839357
34.59565148,0.3132211566,-0.05986479297,0.2585487068
34.60565148,0.3054326177,-0.1470658034,0.2617557645
34.61565148,0.248164013,-0.2875648141,0.2829833329
34.62565148,0.1696678251,-0.4147774875,0.2996293902
34.63565148,0.06520986557,-0.5201517344,0.2857322097
34.64565148,-0.04077525437,-0.5957463384,0.2452623993
34.65565148,-0.1594358236,-0.6395758986,0.1609629989
34.66565148,-0.2574796975,-0.6705773473,0.03161227703
34.67565148,-0.2956587672,-0.6690501571,-0.09407325089
34.68565148,-0.3245221674,-0.6133087277,-0.263435632
34.69565148,-0.3515529633,-0.5122104883,-0.4092797041
34.70565148,-0.3981314301,-0.409126997,-0.5210680366
34.71565148,-0.4688390791,-0.3507893682,-0.5816964507
34.72565148,-0.60185498,-0.3152064681,-0.628885746
34.73565148,-0.7739662528,-0.2948952019,-0.641866684
34.74565148,-0.9802860022,-0.1782199293,-0.6591235995
34.75565148,-1.23516953,0.1160643995,-0.7206682563
34.76565148,-1.49768889,0.4224133193,-0.7942775488
34.77565148,-1.899638176,0.8048149347,-0.9013316631
34.78565148,-2.324800491,0.9476047158,-0.9914342761
34.79565148,-2.538145065,0.7956519723,-0.9674578309
34.80565148,-2.510350704,0.5114469528,-0.955698669
34.81565148,-2.332130671,0.1530217379,-0.9639453292
34.82565148,-2.134668589,-0.3859141171,-0.8903360963
34.83565148,-2.003027201,-1.200044751,-0.8313875794
34.84565148,-1.824807167,-1.457371712,-0.9367618561
34.85565148,-1.490663886,-1.478446603,-1.116967082
34.86565148,-1.250899315,-1.749823451,-1.205542564
34.87565148,-0.9857838154,-2.079079866,-1.223563075
34.88565148,-0.6986771226,-2.172542334,-1.261283994
34.89565148,-0.5441282392,-2.045329571,-1.345125318
34.90565148,-0.3877467215,-1.767233133,-1.443932772
34.91565148,-0.2675589919,-1.40636456,-1.4909693
34.92565148,-0.1821905524,-1.133002281,-1.525177836
34.93565148,-0.1133155003,-1.150717378,-1.507004619
34.94565148,-0.0004581489484,-1.363145828,-1.442405581
34.95565148,0.1488984078,-1.659568191,-1.41002965
34.96565148,0.3335324228,-2.036472082,-1.391703725
34.97565148,0.4550946057,-2.378403902,-1.396132469
34.98565148,0.5754350424,-2.710561752,-1.399339557
34.99565148,0.6352998614,-3.026073694,-1.413389444
35.00565148,0.6717990637,-3.219565392,-1.377806544
35.01565148,0.6838636398,-3.311653137,-1.320996046
35.02565148,0.7212791443,-3.358231783,-1.267545342
35.03565148,0.8118399382,-3.323412418,-1.18202424
35.04565148,0.8623890281,-3.344640017,-1.012661815
35.05565148,0.8823948503,-3.360369682,-0.7808384895
35.06565148,0.9251554012,-3.217274427,-0.6360634565
35.07565148,0.9369145632,-3.04638505,-0.4642575979
35.08565148,0.8791878223,-2.920393944,-0.3278819323
35.09565148,0.7646505833,-2.884200335,-0.2176207453
35.10565148,0.632856369,-2.954907894,-0.1214094684
35.11565148,0.5477933884,-3.027295351,-0.06307183951
35.12565148,0.4943426847,-3.078302622,-0.02779436857
35.13565148,0.4821254015,-3.090672731,-0.02046398632
35.14565148,0.4802927971,-3.028059006,-0.04703662544
35.15565148,0.4541783035,-2.895806789,-0.08170322329
35.16565148,0.3955352604,-2.702162504,-0.1708895564
35.17565148,0.3388774991,-2.458274364,-0.2890919745
35.18565148,0.2641992271,-2.256230831,-0.3868304193
35.19565148,0.1902845204,-2.131614208,-0.4408919811
35.20565148,0.06887505949,-2.032348633,-0.4804455042
35.21565148,-0.04398229718,-2.034639359,-0.5022839308
35.22565148,-0.09819658846,-2.134516001,-0.5100724697
35.23565148,-0.1389718503,-2.230727196,-0.4946481287
35.24565148,-0.1725694388,-2.290133715,-0.452192992
35.25565148,-0.1507309973,-2.376113176,-0.3915646076
35.26565148,-0.1076650023,-2.492482901,-0.3092505336
35.27565148,-0.06505715102,-2.570979118,-0.2109012306
35.28565148,-0.0354301855,-2.576171398,-0.1157589629
35.29565148,0.0160352122,-2.556623697,0.01725694351
35.30565148,0.0726929605,-2.562885046,0.1527163088
35.31565148,0.1159116775,-2.588846922,0.2709187269
35.32565148,0.1820378453,-2.56777215,0.3636175394
35.33565148,0.2550362349,-2.496148109,0.4152356386
35.34565148,0.3362813294,-2.287079573,0.456469059
35.35565148,0.4454734921,-2.055408716,0.4416555762
35.36565148,0.6343835592,-1.93140316,0.3651446998
35.37565148,0.7214318514,-1.916742444,0.3332269788
35.38565148,0.5525276065,-1.851685286,0.4156937897
35.39565148,0.2470949888,-1.64826715,0.4819726646
35.40565148,0.07559457421,-1.4553864,0.49922961
35.41565148,0.03955352306,-1.415222049,0.4922046661
35.42565148,0.04886921868,-1.4909693,0.4538728893
35.43565148,0.04260785133,-1.699274421,0.4137084782
35.44565148,-0.00167987938,-2.036777496,0.393702656
35.45565148,-0.08185594529,-2.453234911,0.4050036669
35.46565148,-0.1569923609,-2.770579338,0.4254676402
35.47565148,-0.1727221459,-3.016910791,0.3849978149
35.48565148,-0.2428189367,-3.245374441,0.3132211566
35.49565148,-0.2991712391,-3.492774725,0.1653917581
35.50565148,-0.2646573782,-3.62502718,-0.01237002108
35.51565148,-0.1540907621,-3.649156332,-0.2984076738
35.52565148,-0.0491746515,-3.595400095,-0.5033529401
35.53565148,0.06505715102,-3.495523691,-0.5969680548
35.54565148,0.2179261744,-3.216511011,-0.6250678897
35.55565148,0.3488040566,-2.941774368,-0.6165157557
35.56565148,0.4937318265,-2.610532522,-0.5893322229
35.57565148,0.6239988208,-2.269822598,-0.5438227654
35.58565148,0.7237225771,-2.066709757,-0.4915938079
35.59565148,0.8008443117,-1.938428164,-0.460439682
35.60565148,0.8770498037,-1.82618165,-0.4257730842
35.61565148,0.9172141552,-1.798998117,-0.4025602043
35.62565148,0.9253081083,-1.854281425,-0.3711006343
35.63565148,0.8782715201,-1.934610248,-0.3397938013
35.64565148,0.7040221691,-2.060601234,-0.2973386645
35.65565148,0.4894557893,-2.086410284,-0.2800817192
35.66565148,0.3339905739,-1.895514846,-0.2860376537
35.67565148,0.2507601976,-1.694387436,-0.2434297949
35.68565148,0.2095267773,-1.61680758,-0.1867720485
35.69565148,0.1702786833,-1.514640331,-0.1055269688
35.70565148,0.1142318025,-1.428661108,-0.03909537569
35.71565148,0.05421429127,-1.330311775,0.01771509275
35.72565148,0.01267545391,-1.227991819,0.05497787148
35.73565148,-0.03711006418,-1.061989188,0.09743300825
35.74565148,-0.07925976813,-0.9046914577,0.1472185254
35.75565148,-0.09040805697,-0.7713701129,0.1979203373
35.76565148,-0.07788532227,-0.680809319,0.2411390543
35.77565148,-0.04886921868,-0.6389650702,0.2706133127
35.78565148,0.01572977938,-0.5991060734,0.2890919745
35.79565148,0.07895433158,-0.5383250117,0.2977968156
35.80565148,0.1296561509,-0.4569272101,0.2982549667
35.81565148,0.1631010175,-0.3694207668,0.2936734557
35.82565148,0.1719585657,-0.2823724449,0.2977968156
35.83565148,0.1479821056,-0.2287690341,0.3139847219
35.84565148,0.1053742543,-0.2489275932,0.3359758854
35.85565148,0.07941248268,-0.3486513495,0.3648392558
35.86565148,0.0971275717,-0.5044219494,0.4066835344
35.87565148,0.1605048478,-0.5725334287,0.4231768847
35.88565148,0.2632829249,-0.5453499556,0.3877467215
35.89565148,0.3675881624,-0.4273002446,0.3101668358
35.90565148,0.4274529517,-0.2964223623,0.2423607856
35.91565148,0.4550946057,-0.1302670091,0.1858557463
35.92565148,0.4115704596,-0.08765916526,0.1617265791
35.93565148,0.3168863356,-0.1783726513,0.1821905524
35.94565148,0.2209804952,-0.2825251818,0.2220495194
35.95565148,0.1145372316,-0.4300491214,0.2776382565
35.96565148,0.0239764601,-0.555123806,0.3283400834
35.97565148,-0.05513058975,-0.6259841323,0.3634648323
35.98565148,-0.1113301888,-0.6524040699,0.3634648323
35.99565148,-0.1226311997,-0.6217080951,0.3220787048
36.00565148,-0.09819658846,-0.5056437254,0.236099422
36.01565148,-0.05818491429,-0.3512475193,0.1195768714
36.02565148,-0.03649919853,-0.2119702399,0.003054326167
36.03565148,-0.02641992271,-0.1267545372,-0.07819075137
36.04565148,-0.04077525437,-0.05421429127,-0.1485929638
36.05565148,-0.09514226019,-0.0201585535,-0.1910481006
36.06565148,-0.224187538,-0.01786780916,-0.2104430795
36.07565148,-0.4202753007,-0.04444044828,-0.2186897546
36.08565148,-0.6078109145,-0.08093964309,-0.2209804952
36.09565148,-0.8541423082,-0.1191187203,-0.2220495194
36.10565148,-1.111927509,-0.1293507218,-0.2325869352
36.11565148,-1.387122273,-0.1102611795,-0.255188942
36.12565148,-1.60856092,-0.07452555746,-0.2901609838
36.13565148,-1.900401831,-0.0001527163113,-0.3526219726
36.14565148,-2.15421629,0.08323039114,-0.4225660264
36.15565148,-2.29135561,0.1569923609,-0.4940372705
36.16565148,-2.332283497,0.1873829067,-0.5291619897
36.17565148,-2.284636021,0.2136501223,-0.5450445414
36.18565148,-2.211790323,-0.0491746515,-0.5355761051
36.19565148,-2.054950714,-0.2503020465,-0.6345362663
36.20565148,-1.912160993,-0.7461718917,-0.6924157739
36.21565148,-1.758681059,-1.209665895,-0.8110763431
36.22565148,-1.564120412,-1.380402684,-1.017396092
36.23565148,-1.361771345,-1.255938888,-1.168432474
36.24565148,-1.120632291,-1.195310593,-1.245554209
36.25565148,-0.889877975,-1.080926061,-1.292896271
36.26565148,-0.6101016402,-0.7197519541,-1.291369081
36.27565148,-0.3738495409,-0.3136793077,-1.320232511
36.28565148,-0.177303642,-0.22434026,-1.35428822
36.29565148,0.003512475174,-0.2641992271,-1.524414182
36.30565148,0.1432479024,-0.2408336252,-1.693013072
36.31565148,0.3080287874,-0.1684460938,-1.822363734
36.32565148,0.4280638099,-0.255188942,-1.85351789
36.33565148,0.5325217843,-0.4966334403,-1.885588288
36.34565148,0.5638286471,-0.7757988572,-1.88345027
36.35565148,0.4583016634,-1.334129691,-1.797165513
36.36565148,0.3436116874,-2.084730387,-1.744783878
36.37565148,0.3145956099,-2.456747293,-1.708895564
36.38565148,0.3683517575,-2.424676895,-1.624596119
