"Time (s)","Acceleration x (m/s^2)","Acceleration y (m/s^2)","Acceleration z (m/s^2)"
2.617997800E-2,-4.019343853E0,5.620141983E0,7.320840836E0
3.617997800E-2,-4.061816216E0,5.638686657E0,7.402196884E0
4.617997800E-2,-3.981058598E0,5.793023586E0,7.240681171E0
5.617997800E-2,-3.842274904E0,5.739783287E0,7.326822758E0
6.617997800E-2,-3.555136204E0,5.668596745E0,7.308278561E0
7.617997800E-2,-3.177070379E0,5.452644825E0,7.466803074E0
8.617997800E-2,-2.765504837E0,5.197809219E0,7.682157040E0
9.617997800E-2,-2.444268227E0,5.381458282E0,8.177471161E0
1.061799780E-1,-2.166700840E0,4.877768993E0,8.367102623E0
1.161799780E-1,-2.008176327E0,4.159922123E0,8.396414757E0
1.261799780E-1,-2.007578135E0,3.646063566E0,8.666205406E0
1.361799780E-1,-1.443470240E0,3.923630953E0,8.770891190E0
1.461799780E-1,-1.228116274E0,4.457230568E0,9.153144836E0
1.561799780E-1,-1.304686546E0,4.354339123E0,8.764310837E0
1.661799780E-1,-1.162313581E0,3.759722471E0,8.205587387E0
1.761799780E-1,-6.556333899E-1,3.820141315E0,7.882555962E0
1.861799780E-1,-1.974078715E-1,4.017549038E0,7.708477974E0
1.961799780E-1,1.429711580E-1,3.815355778E0,7.933403492E0
2.061799780E-1,3.212364316E-1,3.046063185E0,8.551948547E0
2.161799780E-1,3.930211067E-1,2.704487801E0,8.775078773E0
2.261799780E-1,4.175475538E-1,2.612962246E0,8.884550095E0
2.361799780E-1,4.564309120E-1,2.563311338E0,9.205188751E0
2.461799780E-1,2.464607358E-1,2.130808592E0,9.469595909E0
2.561799780E-1,3.768695593E-1,2.169692039E0,1.016471100E1
2.661799780E-1,6.687939167E-1,2.365305185E0,1.030588722E1
2.761799780E-1,4.528416991E-1,2.442473650E0,1.012881851E1
2.861799780E-1,2.333002090E-1,2.436491728E0,1.034776115E1
2.961799780E-1,3.439682424E-1,2.410768747E0,1.063549805E1
3.061799780E-1,4.103690982E-1,2.488535643E0,1.039681435E1
3.161799780E-1,3.236292601E-1,2.715853691E0,1.006301594E1
3.261799780E-1,2.656033039E-1,2.908475876E0,9.805189133E0
3.361799780E-1,6.879365444E-2,3.141177893E0,9.375079155E0
3.461799780E-1,-2.087737769E-1,3.352942705E0,9.150154114E0
3.561799780E-1,-4.432703853E-1,3.396611691E0,9.015557289E0
3.661799780E-1,-5.006981492E-1,3.200400352E0,9.038289070E0
3.761799780E-1,-4.336991012E-1,3.171088219E0,9.134002686E0
3.861799780E-1,-3.565305769E-1,3.141177893E0,9.272786140E0
3.961799780E-1,-2.608176768E-1,2.987439156E0,9.415757179E0
4.061799780E-1,-3.176472187E-1,2.952144861E0,9.640682220E0
4.161799780E-1,-2.889333367E-1,2.894717216E0,9.668798447E0
4.261799780E-1,-3.415754437E-1,2.851646423E0,9.634700775E0
4.361799780E-1,-1.393819153E-1,2.723630428E0,1.030050373E1
4.461799780E-1,-2.279163599E-1,2.898904562E0,9.065806389E0
4.561799780E-1,-2.416750938E-1,3.026322365E0,9.306285858E0
4.661799780E-1,-5.090730190E-1,3.096312523E0,9.573683739E0
4.761799780E-1,-6.197410822E-1,3.274577856E0,9.349356651E0
4.861799780E-1,-5.288137794E-1,3.112463951E0,9.281759262E0
4.961799780E-1,-3.613162339E-1,3.015554667E0,9.444471359E0
5.061799780E-1,-2.560320199E-1,2.900699139E0,9.486943245E0
5.161799780E-1,1.196411345E-2,2.641676188E0,9.605986595E0
5.261799780E-1,1.651047617E-1,2.733201742E0,9.588040352E0
5.361799780E-1,2.093719877E-2,2.668595552E0,9.199206352E0
5.461799780E-1,1.022931710E-1,2.664407969E0,9.027522087E0
5.561799780E-1,-2.632104978E-2,2.848655462E0,9.420542717E0
5.661799780E-1,-6.939185411E-2,2.997010469E0,9.469595909E0
5.761799780E-1,-7.896314561E-2,2.810370207E0,9.419944763E0
5.861799780E-1,4.007977992E-2,2.758924484E0,9.291330338E0
5.961799780E-1,1.453639716E-1,2.806182861E0,9.334999084E0
6.061799780E-1,2.847459018E-1,2.752942562E0,9.483354568E0
6.161799780E-1,4.570291340E-1,2.656631231E0,9.559925079E0
6.261799780E-1,5.138586760E-1,2.662015200E0,9.479166985E0
6.361799780E-1,5.330012441E-1,2.644068956E0,9.316454887E0
6.461799780E-1,4.851447940E-1,2.749951363E0,9.230313301E0
6.561799780E-1,2.985046208E-1,2.960519791E0,9.221340179E0
6.661799780E-1,1.794616925E-3,3.123830080E0,9.077771187E0
6.761799780E-1,-3.098705411E-1,2.828316450E0,8.801998138E0
6.861799780E-1,-2.715853751E-1,3.365504980E0,8.618349075E0
6.961799780E-1,-4.103690982E-1,3.819543123E0,8.745168686E0
7.061799780E-1,-7.405785918E-1,3.704089403E0,8.805587769E0
7.161799780E-1,-1.080359459E0,3.742972851E0,8.632107735E0
7.261799780E-1,-1.218544960E0,3.905086517E0,8.694919586E0
7.361799780E-1,-1.347757339E0,3.966103554E0,8.843274117E0
7.461799780E-1,-1.587039590E0,4.080958843E0,8.871988297E0
7.561799780E-1,-1.773081541E0,4.219144344E0,8.924630165E0
7.661799780E-1,-1.788036704E0,4.344169617E0,8.872586250E0
7.761799780E-1,-1.940579176E0,4.301098824E0,8.833703041E0
7.861799780E-1,-1.902294040E0,4.138386726E0,8.813364029E0
7.961799780E-1,-1.792224169E0,3.935595036E0,9.075976372E0
8.061799780E-1,-1.428515077E0,3.763311863E0,9.201001167E0
8.161799780E-1,-1.356730461E0,3.686741590E0,9.147761345E0
8.261799780E-1,-1.155733347E0,3.504288673E0,9.253045082E0
8.361799780E-1,-6.777670383E-1,3.295515060E0,9.085547447E0
8.461799780E-1,-7.202396393E-1,3.352344513E0,9.124430656E0
8.561799780E-1,-8.973084688E-1,3.485744476E0,9.191430092E0
8.661799780E-1,-6.777670383E-1,3.620340586E0,9.154939651E0
8.761799780E-1,-7.256234884E-1,3.707080364E0,9.087940216E0
8.861799780E-1,-8.644071817E-1,3.716651678E0,9.059226990E0
8.961799780E-1,-8.255237937E-1,3.711267948E0,9.150154114E0
9.061799780E-1,-7.298108935E-1,3.649054527E0,9.207581520E0
9.161799780E-1,-5.910272002E-1,3.514458179E0,9.230911255E0
9.261799780E-1,-3.906283081E-1,3.371487141E0,9.230911255E0
9.361799780E-1,-6.041877344E-2,3.414557934E0,9.227920532E0
9.461799780E-1,-4.666004330E-2,3.472583771E0,9.132207870E0
9.561799780E-1,-1.902294010E-1,3.454039574E0,9.055039406E0
9.661799780E-1,-3.002992272E-1,3.478565931E0,8.916254997E0
9.761799780E-1,-4.295116663E-1,3.708875179E0,8.811569214E0
9.861799780E-1,-5.922235847E-1,3.851846218E0,8.927022934E0
9.961799780E-1,-6.777670383E-1,3.673580885E0,9.030512810E0
1.006179978E0,-8.165507317E-1,3.650250912E0,8.982057571E0
1.016179978E0,-7.399803996E-1,3.563511133E0,9.101698875E0
1.026179978E0,-7.256234884E-1,3.549154282E0,9.092127800E0
1.036179978E0,-8.446664214E-1,3.563511133E0,9.096315384E0
1.046179978E0,-8.548358679E-1,3.311666489E0,8.759525299E0
1.056179978E0,-8.548358679E-1,3.598206997E0,8.880961418E0
1.066179978E0,-9.553344250E-1,3.669393539E0,8.938388824E0
1.076179978E0,-8.309076428E-1,3.697509289E0,9.064012527E0
1.086179978E0,-8.063812256E-1,3.619742393E0,9.269196510E0
1.096179978E0,-6.340979934E-1,3.451646566E0,9.393623352E0
1.106179978E0,-5.623133183E-1,3.431307554E0,9.556335449E0
1.116179978E0,-5.383850932E-1,3.383451223E0,9.513264656E0
1.126179978E0,-5.623133183E-1,3.489931822E0,9.384650230E0
1.136179978E0,-5.916253924E-1,3.524627686E0,9.188439369E0
1.146179978E0,-6.825526357E-1,3.558127165E0,9.130413055E0
1.156179978E0,-6.825526357E-1,3.574278831E0,8.924630165E0
1.166179978E0,-6.544370055E-1,3.612564087E0,8.843872070E0
1.176179978E0,-6.017948985E-1,3.503092289E0,8.781061172E0
1.186179978E0,-5.826523304E-1,3.546163082E0,8.814560890E0
1.196179978E0,-6.209374666E-1,3.665206194E0,8.858827591E0
1.206179978E0,-6.586244106E-1,3.693919897E0,8.892327309E0
1.216179978E0,-7.160521746E-1,3.664607763E0,9.011369705E0
1.226179978E0,-7.543373108E-1,3.696911097E0,9.154939651E0
1.236179978E0,-6.963114142E-1,3.619742393E0,9.269794464E0
1.246179978E0,-5.341976285E-1,3.524627686E0,9.207581520E0
1.256179978E0,-4.145565331E-1,3.371487141E0,9.192625999E0
1.266179978E0,-4.815555513E-1,3.391227961E0,9.116056442E0
1.276179978E0,-5.581258535E-1,3.510869026E0,9.121439934E0
1.286179978E0,-6.107679605E-1,3.562912941E0,9.126225471E0
1.296179978E0,-6.873382926E-1,3.549154282E0,9.111269951E0
1.306179978E0,-7.351947427E-1,3.629911900E0,9.169296265E0
1.316179978E0,-7.537391186E-1,3.672384501E0,9.207581520E0
1.326179978E0,-9.164510965E-1,3.753142357E0,9.327222824E0
1.336179978E0,-9.068797827E-1,3.695714474E0,9.288339615E0
1.346179978E0,-7.345965505E-1,3.514458179E0,9.230911255E0
1.356179978E0,-6.484549642E-1,3.428316593E0,9.225527763E0
1.366179978E0,-6.436693072E-1,3.543172121E0,9.235696793E0
1.376179978E0,-6.197410822E-1,3.485744476E0,9.240483284E0
1.386179978E0,-5.341976285E-1,3.434298754E0,9.092127800E0
1.396179978E0,-5.006981492E-1,3.497110367E0,8.968298912E0
1.406179978E0,-4.965106845E-1,3.479164124E0,8.852845192E0
1.416179978E0,-7.597211599E-1,3.556332588E0,8.699107170E0
1.426179978E0,-9.996016622E-1,3.975076675E0,8.265407562E0
1.436179978E0,-1.487139225E0,4.202992916E0,8.494520187E0
1.446179978E0,-1.467398524E0,4.156930923E0,8.925228119E0
1.456179978E0,-1.548156261E0,4.113262177E0,9.049057007E0
1.466179978E0,-1.361516118E0,3.439084291E0,8.968897820E0
1.476179978E0,-1.222732425E0,3.485744476E0,9.156734467E0
1.486179978E0,-1.011565804E0,3.646661758E0,9.531808853E0
1.496179978E0,-1.050449133E0,3.615555048E0,9.143573761E0
1.506179978E0,-1.084546804E0,3.708875179E0,8.708678246E0
1.516179978E0,-1.012762189E0,3.900300980E0,8.781659126E0
1.526179978E0,-1.094118118E0,4.118646145E0,8.988637924E0
1.536179978E0,-1.204187989E0,4.094717979E0,8.992825508E0
1.546179978E0,-1.256830096E0,4.066602230E0,8.916254997E0
1.556179978E0,-1.204187989E0,4.037290096E0,8.992825508E0
1.566179978E0,-1.074975610E0,3.950550079E0,9.093324661E0
1.576179978E0,-9.074779749E-1,3.597010612E0,9.034101486E0
1.586179978E0,-6.873382926E-1,3.362514019E0,9.052646637E0
1.596179978E0,-4.767699242E-1,3.228515863E0,9.105288506E0
1.606179978E0,-4.145565331E-1,3.467798233E0,9.059226990E0
1.616179978E0,-4.959124923E-1,3.486342669E0,9.217152596E0
1.626179978E0,-5.102694035E-1,3.300898790E0,8.961718559E0
1.636179978E0,-4.576273263E-1,3.367897987E0,8.996415138E0
1.646179978E0,-5.150550604E-1,3.373281717E0,8.914461136E0
1.656179978E0,-5.539384484E-1,3.311666489E0,8.794221878E0
1.666179978E0,-5.629115105E-1,3.287140131E0,8.933005333E0
1.676179978E0,-4.911268353E-1,3.233899832E0,9.023932457E0
1.686179978E0,-3.714857101E-1,3.060420275E0,9.190832138E0
1.696179978E0,-3.182454109E-1,2.940180779E0,9.305088997E0
1.706179978E0,-2.177468538E-1,2.939582586E0,9.396614075E0
1.716179978E0,-1.746760458E-1,2.905484915E0,9.549755096E0
1.726179978E0,-7.896314561E-2,2.852244616E0,9.621540070E0
1.736179978E0,-5.982056633E-2,2.837887764E0,9.645467758E0
1.746179978E0,-1.549352705E-1,2.856431961E0,9.707681656E0
1.756179978E0,-2.554338276E-1,2.851646423E0,9.697511673E0
1.766179978E0,-3.224328458E-1,2.866601467E0,9.606584549E0
1.776179978E0,-3.176472187E-1,2.885744095E0,9.539586067E0
1.786179978E0,-2.943171859E-1,2.919841766E0,9.463015556E0
1.796179978E0,-2.943171859E-1,2.997608662E0,9.339186668E0
1.806179978E0,-2.949153781E-1,3.089133978E0,9.220144272E0
1.816179978E0,-2.901297510E-1,3.108276606E0,9.191430092E0
1.826179978E0,-3.230310678E-1,3.103491068E0,9.248857498E0
1.836179978E0,-3.565305769E-1,3.112463951E0,9.334999084E0
1.846179978E0,-2.512463629E-1,3.025724173E0,9.382855415E0
1.856179978E0,-2.273181528E-1,2.982653379E0,9.420542717E0
1.866179978E0,-2.321037948E-1,2.953939438E0,9.401400566E0
1.876179978E0,-2.416750938E-1,3.002992392E0,9.262616158E0
1.886179978E0,-2.422732860E-1,3.123231649E0,9.105288506E0
1.896179978E0,-3.379862010E-1,3.214757204E0,8.971888542E0
1.906179978E0,-4.719842672E-1,3.239283562E0,8.880363464E0
1.916179978E0,-4.767699242E-1,3.229712248E0,8.933005333E0
1.926179978E0,-4.815555513E-1,3.175873756E0,9.071190834E0
1.936179978E0,-4.815555513E-1,3.175873756E0,9.071190834E0
1.946179978E0,-4.815555513E-1,3.175873756E0,9.071190834E0
1.956179978E0,-4.815555513E-1,3.175873756E0,9.071190834E0
1.966179978E0,-4.815555513E-1,3.175873756E0,9.071190834E0
1.976179978E0,-4.815555513E-1,3.175873756E0,9.071190834E0
1.986179978E0,-4.815555513E-1,3.175873756E0,9.071190834E0
1.996179978E0,-4.815555513E-1,3.175873756E0,9.071190834E0
2.049253589E0,-2.770290375E0,5.208576679E0,7.533802032E0
2.059253589E0,-2.818146944E0,5.172684193E0,7.834699631E0
2.069253589E0,-2.860619545E0,5.105087280E0,7.978269100E0
2.079253589E0,-2.826521635E0,5.056034088E0,8.188239098E0
2.089253589E0,-2.850450039E0,5.155336380E0,8.313263893E0
2.099253589E0,-2.912663460E0,5.193621635E0,8.289336205E0
2.109253589E0,-2.783450842E0,5.060221672E0,8.198408127E0
2.119253589E0,-2.659622431E0,5.003392220E0,8.198408127E0
2.129253589E0,-2.348555326E0,4.985445976E0,8.017750740E0
2.139253589E0,-2.425125837E0,4.884349346E0,8.097909927E0
2.149253589E0,-2.233700037E0,4.826921463E0,8.165507317E0
2.159253589E0,-2.172084808E0,4.941776752E0,8.089534760E0
2.169253589E0,-2.181656122E0,5.009374142E0,8.042277336E0
2.179253589E0,-2.511267424E0,4.980062008E0,8.112865448E0
2.189253589E0,-2.487339020E0,4.840680122E0,8.202595711E0
2.199253589E0,-2.133201361E0,4.511068821E0,8.154141426E0
2.209253589E0,-1.779063582E0,4.529613495E0,8.275577545E0
2.219253589E0,-1.635494232E0,4.690530777E0,8.578866959E0
2.229253589E0,-1.530210137E0,4.466203690E0,8.467600822E0
2.239253589E0,-1.520638824E0,4.121636868E0,8.508278847E0
2.249253589E0,-1.319641709E0,4.106681824E0,8.575876236E0
2.259253589E0,-1.223928809E0,3.963112593E0,8.628518105E0
2.269253589E0,-1.199402332E0,3.894917011E0,8.838488579E0
2.279253589E0,-1.208973646E0,3.937389612E0,8.953942299E0
2.289253589E0,-1.122832060E0,4.032504559E0,9.026325226E0
2.299253589E0,-1.203589797E0,3.882354736E0,9.273982048E0
2.309253589E0,-9.882357717E-1,3.825525284E0,9.250652313E0
2.319253589E0,-9.930213690E-1,3.854238987E0,9.188439369E0
2.329253589E0,-8.548358679E-1,3.549154282E0,9.010173798E0
2.339253589E0,-9.074779749E-1,3.358326674E0,8.970691681E0
2.349253589E0,-7.351947427E-1,3.329612732E0,9.013762474E0
2.359253589E0,-5.862415433E-1,3.113062143E0,9.199805260E0
2.369253589E0,-2.751746178E-1,2.863012314E0,9.415159225E0
2.379253589E0,-2.697907388E-1,2.760719061E0,9.663414001E0
2.389253589E0,-2.650051117E-1,2.784049034E0,9.744770050E0
2.399253589E0,-3.942175210E-1,2.971885681E0,9.597013474E0
2.409253589E0,-4.713860750E-1,3.016751051E0,9.281160355E0
2.419253589E0,-6.149554253E-1,2.868396044E0,9.241081238E0
2.429253589E0,-6.293123364E-1,2.974278450E0,9.131608963E0
2.439253589E0,-7.872386575E-1,2.936591625E0,9.083154678E0
2.449253589E0,-5.048855543E-1,2.860021353E0,9.126823425E0
2.459253589E0,-2.799602449E-1,2.802593470E0,9.165707588E0
2.469253589E0,-1.256231871E-2,2.682952404E0,9.132207870E0
2.479253589E0,8.374879509E-2,2.662613392E0,9.348159790E0
2.489253589E0,-3.589234129E-2,2.661417007E0,9.510273933E0
2.499253589E0,1.698904037E-1,2.447857618E0,9.275178909E0
2.509253589E0,3.367897868E-1,2.748754978E0,9.416355133E0
2.519253589E0,2.153540403E-2,2.704487801E0,9.568299294E0
2.529253589E0,2.895315289E-1,2.323430777E0,9.332606316E0
2.539253589E0,5.425725579E-1,2.295315027E0,9.232706070E0
2.549253589E0,7.292127013E-1,2.486740828E0,9.229715347E0
2.559253589E0,5.377869010E-1,2.400599241E0,9.185447693E0
2.569253589E0,4.660021961E-1,2.535195589E0,9.138189316E0
2.579253589E0,3.218346536E-1,2.407179594E0,8.935398102E0
2.589253589E0,-1.256231871E-2,2.531008244E0,8.934800148E0
2.599253589E0,-3.134597540E-1,2.395813704E0,9.105288506E0
2.609253589E0,-2.620140910E-1,2.662015200E0,8.671588898E0
2.619253589E0,-5.718846321E-1,2.878565550E0,9.179466248E0
2.629253589E0,3.110669367E-2,2.643470764E0,9.347561836E0
2.639253589E0,3.421736360E-1,2.441277266E0,9.625128746E0
2.649253589E0,1.097707391E0,2.503490686E0,9.638289452E0
2.659253589E0,1.394417405E0,2.560918331E0,9.740582466E0
2.669253589E0,1.006181955E0,1.893919110E0,9.159725189E0
2.679253589E0,1.125823021E0,2.617149830E0,9.155537605E0
2.689253589E0,1.153938770E0,2.513062000E0,8.963513374E0
2.699253589E0,1.110867858E0,2.394019127E0,8.804390907E0
2.709253589E0,1.393221021E0,2.341377020E0,8.876773834E0
2.719253589E0,1.827518344E0,2.554338217E0,8.539983749E0
2.729253589E0,2.066800594E0,1.760519266E0,8.507082939E0
2.739253589E0,2.215753794E0,2.513062000E0,9.106484413E0
2.749253589E0,2.172084808E0,2.566900492E0,8.848059654E0
2.759253589E0,2.181057930E0,2.155334949E0,8.117650986E0
2.769253589E0,2.100300074E0,2.535793781E0,8.526823044E0
2.779253589E0,1.976471543E0,2.637488842E0,9.000602722E0
2.789253589E0,1.923829436E0,2.474776745E0,9.013762474E0
2.799253589E0,1.727617979E0,2.231307030E0,8.882157326E0
2.809253589E0,1.450648785E0,2.201396942E0,9.077172279E0
2.819253589E0,1.345962763E0,2.357528448E0,9.365508080E0
2.829253589E0,1.413560033E0,2.399402857E0,9.519247055E0
2.839253589E0,1.369890928E0,2.338385820E0,9.308079720E0
2.849253589E0,1.580459356E0,2.290529490E0,9.322437286E0
2.859253589E0,1.368694544E0,2.438286304E0,8.714659691E0
2.869253589E0,9.044869542E-1,2.548954248E0,8.541180611E0
2.879253589E0,7.758727670E-1,2.724826813E0,8.651848793E0
2.889253589E0,1.005583763E0,2.895913601E0,8.946166039E0
2.899253589E0,1.293918848E0,3.044268608E0,9.747760773E0
2.909253589E0,1.475773335E0,3.123830080E0,1.000259686E1
2.919253589E0,1.613958836E0,3.088535786E0,9.595816612E0
2.929253589E0,2.461616278E0,3.428316593E0,1.039143085E1
2.939253589E0,2.178664923E0,3.135195971E0,9.828518867E0
2.949253589E0,1.713859200E0,2.907279491E0,9.470791817E0
2.959253589E0,1.364507079E0,2.680559635E0,8.974879265E0
2.969253589E0,1.392622828E0,2.581257343E0,8.749356270E0
2.979253589E0,1.593619823E0,2.528017044E0,8.879166603E0
2.989253589E0,1.914856315E0,2.688934565E0,9.187840462E0
2.999253589E0,2.187638044E0,2.908475876E0,9.376873970E0
3.009253589E0,2.379063845E0,3.022733212E0,9.488738060E0
3.019253589E0,2.546561480E0,3.093919754E0,9.585049629E0
3.029253589E0,2.627917528E0,3.044866800E0,9.777072906E0
3.039253589E0,2.489133835E0,2.934198856E0,9.818947792E0
3.049253589E0,2.255235434E0,2.724826813E0,9.677771568E0
3.059253589E0,1.968096614E0,2.347358942E0,9.492327690E0
3.069253589E0,1.901097536E0,2.223530531E0,9.409774780E0
3.079253589E0,2.059023857E0,2.284547329E0,9.655039787E0
3.089253589E0,2.207378864E0,2.413759947E0,9.608379364E0
3.099253589E0,2.307279348E0,2.553740025E0,9.466006279E0
3.109253589E0,2.426322222E0,2.669193745E0,9.404989243E0
3.119253589E0,2.493919373E0,2.663809776E0,9.496515274E0
3.129253589E0,2.599203587E0,2.648854733E0,9.597013474E0
3.139253589E0,2.647060156E0,2.590828657E0,9.702297211E0
3.149253589E0,2.633301258E0,2.527418852E0,9.912267685E0
3.159253589E0,2.590230465E0,2.440080881E0,1.002652550E1
3.169253589E0,2.518445730E0,2.301895380E0,9.939187050E0
3.179253589E0,2.528017044E0,2.239083767E0,1.002054310E1
3.189253589E0,2.614757061E0,2.271985054E0,1.012642574E1
3.199253589E0,2.538186550E0,2.280958176E0,1.024068260E1
3.209253589E0,2.318047047E0,2.185843468E0,1.016291618E1
3.219253589E0,2.160120726E0,2.062014818E0,1.002712345E1
3.229253589E0,2.112264156E0,2.009372711E0,9.993623734E0
3.239253589E0,2.212762833E0,2.118844509E0,1.012881851E1
3.249253589E0,2.399402857E0,2.214557409E0,1.013958549E1
3.259253589E0,2.456830740E0,2.286940336E0,1.005404282E1
3.269253589E0,2.484946251E0,2.359323025E0,9.963713646E0
3.279253589E0,2.379662037E0,2.402393818E0,9.929615974E0
3.289253589E0,2.212164640E0,2.355135679E0,9.852447510E0
3.299253589E0,2.102094650E0,2.268994093E0,9.798608780E0
3.309253589E0,2.026122570E0,2.220539331E0,9.855438232E0
3.319253589E0,2.059622049E0,2.172084808E0,9.970293999E0
3.329253589E0,2.193620205E0,2.133201361E0,1.014796066E1
3.339253589E0,2.510071039E0,2.197807550E0,1.048953629E1
3.349253589E0,2.864208698E0,2.235494614E0,1.070668507E1
3.359253589E0,2.883351326E0,2.196012974E0,1.083051395E1
3.369253589E0,2.740380049E0,1.902892232E0,1.100518990E1
3.379253589E0,2.511267424E0,1.557727575E0,1.113141060E1
3.389253589E0,2.300698996E0,1.313659668E0,1.104287624E1
3.399253589E0,2.042274237E0,1.228714466E0,1.084068298E1
3.409253589E0,1.941775560E0,1.268794179E0,1.057208824E1
3.419253589E0,1.777867198E0,1.400997639E0,1.008873844E1
3.429253589E0,1.489532113E0,1.501496196E0,9.240483284E0
3.439253589E0,1.210768223E0,1.597209096E0,8.426324844E0
3.449253589E0,9.948160052E-1,1.719243050E0,8.052446365E0
3.459253589E0,8.650053740E-1,1.831705689E0,7.621738434E0
3.469253589E0,9.032905698E-1,1.971087694E0,7.579864025E0
3.479253589E0,9.990034699E-1,2.076371908E0,7.542775154E0
3.489253589E0,9.463613629E-1,2.142772675E0,7.667201996E0
3.499253589E0,9.463613629E-1,2.161317110E0,7.724629879E0
3.509253589E0,1.033101201E0,2.197807550E0,8.056035995E0
3.519253589E0,1.229910851E0,2.190629244E0,8.487341881E0
3.529253589E0,1.259222865E0,2.130210400E0,8.956335068E0
3.539253589E0,1.216750264E0,2.051845312E0,9.238688469E0
3.549253589E0,1.068395257E0,1.965703845E0,9.175278664E0
3.559253589E0,9.248259664E-1,1.948355794E0,8.920442581E0
3.569253589E0,8.907282352E-1,1.948953986E0,8.767302513E0
3.579253589E0,8.482556343E-1,2.025524378E0,8.824729919E0
3.589253589E0,8.434699774E-1,2.053640127E0,8.916254997E0
3.599253589E0,8.386843204E-1,1.953141451E0,8.896514893E0
3.609253589E0,8.099704385E-1,1.884945989E0,9.049057007E0
3.619253589E0,8.967102766E-1,1.844866276E0,9.398408890E0
3.629253589E0,9.499505758E-1,1.877169371E0,9.576076508E0
3.639253589E0,8.446664214E-1,1.915454507E0,9.571290970E0
3.649253589E0,8.105686903E-1,1.969891191E0,9.279366493E0
3.659253589E0,8.913264275E-1,2.071586132E0,9.050253868E0
3.669253589E0,9.631111026E-1,2.163111687E0,8.960522652E0
3.679253589E0,1.116251707E0,2.301895380E0,8.985647202E0
3.689253589E0,1.206580877E0,2.364108801E0,9.025128365E0
3.699253589E0,1.249651670E0,2.330609322E0,9.049057007E0
3.709253589E0,1.254437327E0,2.268395901E0,9.034101486E0
3.719253589E0,1.288534999E0,2.234298229E0,9.163313866E0
3.729253589E0,1.302891970E0,2.233700037E0,9.263813019E0
3.739253589E0,1.408176184E0,2.347957134E0,9.332008362E0
3.749253589E0,1.546361685E0,2.434697151E0,9.223134995E0
3.759253589E0,1.599003673E0,2.459821701E0,9.093922615E0
3.769253589E0,1.599003673E0,2.498705149E0,8.959924698E0
3.779253589E0,1.655833244E0,2.528017044E0,8.903095245E0
3.789253589E0,1.732403636E0,2.608774900E0,8.966505051E0
3.799253589E0,1.852642894E0,2.679961443E0,9.125029564E0
3.809253589E0,1.953141451E0,2.721835852E0,9.326624870E0
3.819253589E0,2.029711723E0,2.702095032E0,9.427721024E0
3.829253589E0,2.087139606E0,2.697309256E0,9.437292099E0
3.839253589E0,2.158924341E0,2.706282377E0,9.528818130E0
3.849253589E0,2.297708035E0,2.701496840E0,9.596415520E0
3.859253589E0,2.455634356E0,2.734398127E0,9.640084267E0
3.869253589E0,2.570489645E0,2.738585472E0,9.817750931E0
3.879253589E0,2.685943365E0,2.607578516E0,1.009531879E1
3.889253589E0,2.734398127E0,2.486740828E0,1.023350430E1
3.899253589E0,2.791825771E0,2.433500528E0,1.034836006E1
3.909253589E0,2.849253654E0,2.437688112E0,1.049671459E1
3.919253589E0,2.849253654E0,2.432902336E0,1.047278690E1
3.929253589E0,2.782254457E0,2.419143677E0,1.033878803E1
3.939253589E0,2.671586514E0,2.478964329E0,9.998409271E0
3.949253589E0,2.545963287E0,2.563909531E0,9.347561836E0
3.959253589E0,2.630908489E0,2.596810818E0,8.734998703E0
3.969253589E0,2.827120066E0,2.544168711E0,8.778668404E0
3.979253589E0,3.000001431E0,2.551347256E0,9.166903496E0
3.989253589E0,3.135195971E0,2.547159672E0,9.871589661E0
3.999253589E0,3.303291559E0,2.282154560E0,1.020060253E1
4.009253589E0,3.399004459E0,1.903490424E0,1.027059269E1
4.019253589E0,3.422932863E0,1.673779488E0,1.025025368E1
4.029253589E0,3.413959742E0,1.568495274E0,1.028315544E1
4.039253589E0,3.346960783E0,1.534995675E0,1.025384331E1
4.049253589E0,3.313461065E0,1.368096352E0,1.017129040E1
4.059253589E0,3.227319479E0,1.220339537E0,1.008335495E1
4.069253589E0,3.111865759E0,1.115653515E0,9.938589096E0
4.079253589E0,3.011367321E0,1.021735311E0,9.626923561E0
4.089253589E0,2.919841766E0,1.010369420E0,9.175876617E0
4.099253589E0,2.837289333E0,9.996016622E-1,8.610571861E0
4.109253589E0,2.803191662E0,1.006181955E0,8.246863365E0
4.119253589E0,2.764308453E0,1.085145116E0,7.945367813E0
4.129253589E0,2.793022156E0,1.133001566E0,7.941180229E0
4.139253589E0,2.965903759E0,1.112064362E0,8.214560509E0
4.149253589E0,3.210569859E0,9.714859724E-1,8.578269005E0
4.159253589E0,3.373281717E0,8.685946465E-1,8.913862228E0
4.169253589E0,3.493520975E0,7.423732281E-1,9.214759827E0
4.179253589E0,3.518047571E0,7.453642488E-1,9.531210899E0
4.189253589E0,3.484548092E0,9.068797827E-1,9.708877563E0
4.199253589E0,3.407977581E0,9.690931439E-1,9.714262009E0
4.209253589E0,3.226123095E0,1.022333503E0,9.603593826E0
4.219253589E0,3.101696253E0,1.017547846E0,9.545567513E0
4.229253589E0,3.044268608E0,1.080359459E0,9.497711182E0
4.239253589E0,3.001197815E0,1.180858016E0,9.469595909E0
4.249253589E0,2.957528830E0,1.287338614E0,9.250054359E0
4.259253589E0,2.875574589E0,1.433898926E0,8.733204842E0
4.269253589E0,2.740380049E0,1.633699656E0,8.140382767E0
4.279253589E0,2.610569477E0,1.784447432E0,7.786244869E0
4.289253589E0,2.543570518E0,1.895115495E0,7.671987534E0
4.299253589E0,2.481357098E0,1.990828395E0,7.705487251E0
4.309253589E0,2.419741869E0,2.004587173E0,7.782057285E0
4.319253589E0,2.347957134E0,2.027318954E0,7.925626755E0
4.329253589E0,2.319243431E0,2.041077614E0,8.006982803E0
4.339253589E0,2.262413740E0,2.164906263E0,8.170292854E0
4.349253589E0,2.233700037E0,2.216950178E0,8.257032394E0
4.359253589E0,2.267199516E0,2.201995134E0,8.285746574E0
4.369253589E0,2.358126640E0,2.277967215E0,8.415556908E0
4.379253589E0,2.405983210E0,2.334796667E0,8.531010628E0
4.389253589E0,2.473580360E0,2.353341103E0,8.617751122E0
4.399253589E0,2.583650351E0,2.376072884E0,8.857631683E0
4.409253589E0,2.627319336E0,2.346162558E0,9.040083885E0
4.419253589E0,2.569891453E0,2.292324066E0,9.178269386E0
4.429253589E0,2.483749866E0,2.182254314E0,9.244071960E0
4.439253589E0,2.460419893E0,2.109871387E0,9.243474007E0
4.449253589E0,2.416750908E0,2.167897224E0,9.200403214E0
4.459253589E0,2.421536446E0,2.254637241E0,9.081359863E0
4.469253589E0,2.425724030E0,2.389831543E0,8.905488014E0
4.479253589E0,2.473580360E0,2.500499725E0,8.776873589E0
4.489253589E0,2.459223509E0,2.557927370E0,8.805587769E0
4.499253589E0,2.468794823E0,2.480160713E0,8.982656479E0
4.509253589E0,2.488535643E0,2.353939295E0,9.312267303E0
4.519253589E0,2.599801779E0,2.160120726E0,9.699306488E0
4.529253589E0,2.700300455E0,2.014756680E0,9.976275444E0
4.539253589E0,2.772683144E0,1.960918188E0,1.013420200E1
4.549253589E0,2.830111027E0,1.945963025E0,1.023529911E1
4.559253589E0,2.911466837E0,1.998605132E0,1.033160973E1
4.569253589E0,2.973680258E0,2.136192322E0,1.047159004E1
4.579253589E0,2.925823927E0,2.318645239E0,1.037168980E1
4.589253589E0,2.776870728E0,2.431107759E0,1.000798035E1
4.599253589E0,2.661417007E0,2.389831543E0,9.691530228E0
4.609253589E0,2.647060156E0,2.299502611E0,9.571290970E0
4.619253589E0,2.642872572E0,2.250449657E0,9.809974670E0
4.629253589E0,2.696112871E0,2.190629244E0,1.018804073E1
4.639253589E0,2.725425005E0,2.097907305E0,1.049432182E1
4.649253589E0,2.773281336E0,1.899901152E0,1.074197865E1
4.659253589E0,2.855235577E0,1.731207132E0,1.094716358E1
4.669253589E0,2.898306370E0,1.663609982E0,1.103809071E1
4.679253589E0,2.855235577E0,1.606780410E0,1.096092224E1
4.689253589E0,2.792423964E0,1.488933921E0,1.061994553E1
4.699253589E0,2.648854733E0,1.424327731E0,1.026939678E1
4.709253589E0,2.523829699E0,1.368694544E0,9.995418549E0
4.719253589E0,2.408974171E0,1.260419369E0,9.697511673E0
4.729253589E0,2.327019930E0,1.165304661E0,9.572486877E0
4.739253589E0,2.231905222E0,1.131206870E0,9.638887405E0
4.749253589E0,2.203191519E0,1.030110121E0,9.753145218E0
4.759253589E0,2.083550215E0,1.026520967E0,9.507881165E0
4.769253589E0,1.948953986E0,1.129412293E0,9.139386177E0
4.779253589E0,1.761117458E0,1.281356573E0,8.560322762E0
4.789253589E0,1.539781332E0,1.290927768E0,7.745566845E0
4.799253589E0,1.323829174E0,1.342971683E0,7.060621262E0
4.809253589E0,1.174875975E0,1.382453322E0,6.859025955E0
4.819253589E0,1.309472203E0,1.371685624E0,7.041478634E0
4.829253589E0,1.688136339E0,1.348953724E0,7.651050568E0
4.839253589E0,2.143370867E0,1.297508121E0,8.346763611E0
4.849253589E0,2.527418852E0,1.148554921E0,9.175278664E0
4.859253589E0,2.696112871E0,1.049252748E0,9.826724052E0
4.869253589E0,2.811566591E0,8.638089895E-1,1.036690426E1
4.879253589E0,2.893520832E0,8.566305041E-1,1.075513935E1
4.889253589E0,2.879163742E0,9.469595551E-1,1.081795120E1
4.899253589E0,2.840878725E0,8.961120844E-1,1.058285618E1
4.909253589E0,2.676970243E0,7.896314859E-1,9.997213364E0
4.919253589E0,2.499303341E0,8.602197170E-1,9.364909172E0
4.929253589E0,2.288136721E0,1.064207911E0,8.843872070E0
4.939253589E0,2.200798512E0,1.291526079E0,8.471190453E0
4.949253589E0,2.133799553E0,1.297508121E0,8.346763611E0
4.959253589E0,2.143370867E0,1.186840057E0,8.417351723E0
4.969253589E0,2.014756680E0,1.165902853E0,8.661419868E0
4.979253589E0,1.900499344E0,1.079162955E0,8.770293236E0
4.989253589E0,1.871785522E0,9.445667267E-1,8.793622971E0
4.999253589E0,1.924427629E0,8.344969153E-1,8.855237961E0
5.009253589E0,1.924427629E0,8.769695163E-1,8.965308189E0
5.019253589E0,2.039283037E0,9.146564603E-1,9.019146919E0
5.029253589E0,2.211566210E0,1.000199914E0,9.149555206E0
5.039253589E0,2.321636200E0,1.124626637E0,9.174679756E0
5.049253589E0,2.450848579E0,1.326221943E0,9.099904060E0
5.059253589E0,2.603390932E0,1.451845169E0,8.928817749E0
5.069253589E0,2.770290375E0,1.515254974E0,8.781061172E0
5.079253589E0,2.866003275E0,1.577468276E0,8.753543854E0
5.089253589E0,2.923431158E0,1.658226132E0,8.902496338E0
5.099253589E0,2.919243574E0,1.608574986E0,9.122636795E0
5.109253589E0,2.943770170E0,1.502094388E0,9.313464165E0
5.119253589E0,2.967698336E0,1.424925923E0,9.480362892E0
5.129253589E0,3.059223652E0,1.370489120E0,9.772886276E0
5.139253589E0,3.178864956E0,1.408176184E0,9.897911072E0
5.149253589E0,3.297907829E0,1.461416483E0,9.817152977E0
5.159253589E0,3.340978622E0,1.543370605E0,9.650253296E0
5.169253589E0,3.416950703E0,1.615753531E0,9.564710617E0
5.179253589E0,3.517449379E0,1.564307809E0,9.454640388E0
5.189253589E0,3.708875179E0,1.587039590E0,9.632905960E0
5.199253589E0,3.819543123E0,1.580459356E0,9.939785004E0
5.209253589E0,3.843471289E0,1.474576950E0,1.007318497E1
5.219253589E0,3.882354736E0,1.335195065E0,1.013958549E1
5.229253589E0,3.844069481E0,1.167697430E0,1.010488987E1
5.239253589E0,3.809971809E0,1.159322619E0,9.975079536E0
5.249253589E0,3.647259951E0,1.270588875E0,9.702297211E0
5.259253589E0,3.608376503E0,1.349551916E0,9.363115311E0
5.269253589E0,3.750749588E0,1.243071318E0,8.802596092E0
5.279253589E0,3.946960926E0,1.124028444E0,8.706883430E0
5.289253589E0,4.148556232E0,1.107278705E0,9.171689034E0
5.299253589E0,4.283152580E0,1.013360381E0,9.641280174E0
5.309253589E0,4.355535507E0,7.998009920E-1,1.005165005E1
5.319253589E0,4.480560303E0,6.406782866E-1,1.033878803E1
5.329253589E0,4.590630054E0,4.630111754E-1,1.037587738E1
5.339253589E0,4.518845558E0,2.913261652E-1,1.028853893E1
5.349253589E0,4.346562386E0,2.446661144E-1,1.004806042E1
5.359253589E0,4.164109707E0,3.661018610E-1,9.784850121E0
5.369253589E0,4.043870449E0,4.067798555E-1,9.401400566E0
5.379253589E0,3.918845177E0,3.804588020E-1,8.974879265E0
5.389253589E0,3.798605919E0,4.061816335E-1,8.653642654E0
5.399253589E0,3.774079561E0,5.288137794E-1,8.237890244E0
5.409253589E0,3.696911097E0,6.083751321E-1,7.768897057E0
5.419253589E0,3.739383698E0,6.346961856E-1,7.400402069E0
5.429253589E0,3.701098442E0,5.916253924E-1,7.399804115E0
5.439253589E0,3.811168194E0,4.043870270E-1,7.494918823E0
5.449253589E0,3.902693748E0,2.638086975E-1,7.791030407E0
5.459253589E0,4.243072987E0,1.657029688E-1,8.170292854E0
5.469253589E0,4.468596458E0,1.531406492E-1,8.664410591E0
5.479253589E0,4.664807796E0,1.758724600E-1,8.899505615E0
5.489253589E0,4.846662045E0,3.182454109E-1,9.087940216E0
5.499253589E0,4.975874901E0,4.570291340E-1,9.128020287E0
5.509253589E0,4.999803066E0,5.581258535E-1,9.071190834E0
5.519253589E0,4.913063049E0,6.113662124E-1,8.889336586E0
5.529253589E0,4.731208801E0,6.233302951E-1,8.572287560E0
5.539253589E0,4.539184570E0,6.388836503E-1,8.294121742E0
5.549253589E0,4.319045067E0,5.880361795E-1,8.034500122E0
5.559253589E0,4.083950043E0,5.467599630E-1,7.668996811E0
5.569253589E0,3.939782381E0,5.964110494E-1,7.372286797E0
5.579253589E0,3.915854216E0,8.075776696E-1,7.287341595E0
5.589253589E0,4.097708702E0,1.132403374E0,7.404589653E0
5.599253589E0,4.236492634E0,1.337587833E0,7.526623726E0
5.609253589E0,4.293920040E0,1.433300734E0,7.527221680E0
5.619253589E0,4.188635826E0,1.537986755E0,7.580461979E0
5.629253589E0,4.265206337E0,1.609173179E0,7.729415417E0
5.639253589E0,4.418945312E0,1.569691658E0,7.940581799E0
5.649253589E0,4.414159775E0,1.450050473E0,7.972885132E0
5.659253589E0,4.351946354E0,1.344168067E0,7.977072716E0
5.669253589E0,4.308875561E0,1.295713425E0,8.110472679E0
5.679253589E0,4.323830605E0,1.312463164E0,8.493922234E0
5.689253589E0,4.339384079E0,1.185643673E0,8.866603851E0
5.699253589E0,4.358526230E0,1.079162955E0,9.105288506E0
5.709253589E0,4.287340164E0,1.015753269E0,9.248259544E0
5.719253589E0,4.095914364E0,1.116251707E0,9.205188751E0
5.729253589E0,4.095914364E0,1.126421213E0,9.114261627E0
5.739253589E0,4.191029072E0,1.074377418E0,9.023334503E0
5.749253589E0,4.186243057E0,1.104885817E0,8.755337715E0
5.759253589E0,4.367499352E0,1.158724308E0,8.608179092E0
5.769253589E0,4.444069862E0,1.087537885E0,8.531010628E0
5.779253589E0,4.477569580E0,1.043868899E0,8.598010063E0
5.789253589E0,4.420141697E0,1.057627559E0,8.722436905E0
5.799253589E0,4.444668293E0,9.415757060E-1,8.918049812E0
5.809253589E0,4.372883320E0,7.680960894E-1,9.022137642E0
5.819253589E0,4.383052826E0,6.185446382E-1,9.203393936E0
5.829253589E0,4.316651821E0,5.599204898E-1,9.399007797E0
5.839253589E0,4.230510235E0,3.930211067E-1,9.344570160E0
5.849253589E0,4.153341770E0,2.171486616E-1,9.080163956E0
5.859253589E0,3.942773581E0,1.704886109E-1,8.897112846E0
5.869253589E0,3.837489367E0,1.710868180E-1,8.819944382E0
5.879253589E0,3.789632797E0,1.375873089E-1,8.828917503E0
5.889253589E0,3.866203070E0,1.124626622E-1,8.977870941E0
5.899253589E0,3.784847260E0,1.890329868E-1,8.973084450E0
5.909253589E0,3.655634880E0,1.190429255E-1,8.689535141E0
5.919253589E0,3.573680639E0,-2.751746029E-2,8.382058144E0
5.929253589E0,3.511467218E0,-1.513460279E-1,8.251648903E0
5.939253589E0,3.607778311E0,-2.243271172E-1,8.534002304E0
5.949253589E0,3.785445452E0,-2.859423161E-1,9.166305542E0
5.959253589E0,3.877569199E0,-3.840480447E-1,9.587442398E0
5.969253589E0,4.112663746E0,-5.641079545E-1,1.005165005E1
5.979253589E0,4.371686935E0,-7.627122402E-1,1.049192905E1
5.989253589E0,4.639683247E0,-9.559326172E-1,1.077906799E1
5.999253589E0,4.774279594E0,-1.115055323E0,1.097946644E1
6.009253589E0,4.793421745E0,-1.177866936E0,1.106082249E1
6.019253589E0,4.731208801E0,-1.249651670E0,1.104108143E1
6.029253589E0,4.554139614E0,-1.272383451E0,1.082453156E1
6.039253589E0,4.333401680E0,-1.261017561E0,1.051765156E1
6.049253589E0,4.103092670E0,-1.225125194E0,1.016710377E1
6.059253589E0,3.820141315E0,-1.221535921E0,9.529416084E0
6.069253589E0,3.493520975E0,-1.241276741E0,8.800203323E0
6.079253589E0,3.172284603E0,-1.260419369E0,8.042277336E0
6.089253589E0,2.955734253E0,-1.304686546E0,7.437490940E0
6.099253589E0,2.902493954E0,-1.287338614E0,6.939784050E0
6.109253589E0,2.858824968E0,-1.098903775E0,6.662814617E0
6.119253589E0,2.843869686E0,-7.770691514E-1,6.449255466E0
6.129253589E0,2.987439156E0,-5.988038778E-1,6.336194515E0
6.139253589E0,3.092125177E0,-5.886343718E-1,6.269793510E0
6.149253589E0,3.087937593E0,-8.380861282E-1,6.363711834E0
6.159253589E0,2.925225735E0,-1.148554921E0,6.236892223E0
6.169253589E0,2.666800737E0,-1.454237938E0,6.032305717E0
6.179253589E0,2.340778828E0,-1.633699656E0,5.627918720E0
6.189253589E0,1.899901152E0,-1.820339799E0,4.796412945E0
6.199253589E0,1.491924882E0,-1.762313843E0,3.948157310E0
6.209253589E0,1.523629785E0,-2.204387903E0,2.748156786E0
6.219253589E0,1.561316729E0,-2.818146944E0,2.121835470E0
6.229253589E0,2.044068813E0,-3.200400352E0,2.078166485E0
6.239253589E0,2.819941521E0,-3.376870871E0,2.879761934E0
6.249253589E0,3.830909014E0,-3.823132277E0,3.910470486E0
6.259253589E0,4.804189682E0,-5.251049519E0,5.126024246E0
6.269253589E0,4.796412945E0,-7.286743164E0,5.366502762E0
6.279253589E0,4.672584534E0,-6.897311211E0,5.790032387E0
6.289253589E0,5.954539299E0,-5.767899036E0,3.699902058E0
6.299253589E0,6.481558323E0,-2.988037348E0,2.359921217E0
6.309253589E0,7.892725468E0,-1.434497118E0,2.901895761E0
6.319253589E0,8.964710236E0,-2.742773056E0,3.294916868E0
6.329253589E0,1.046082211E1,-4.910071850E0,4.877170563E0
6.339253589E0,1.189292717E1,-6.557530403E0,6.050251961E0
6.349253589E0,1.233380413E1,-7.278368473E0,6.535397053E0
6.359253589E0,1.211845016E1,-7.110272408E0,6.468397617E0
6.369253589E0,1.101296616E1,-6.466004848E0,5.855835438E0
6.379253589E0,9.410373688E0,-4.386641979E0,5.953940868E0
6.389253589E0,1.100160027E1,-3.527618885E0,5.812166214E0
6.399253589E0,1.178106213E1,-4.816751957E0,5.409573555E0
6.409253589E0,1.168654537E1,-7.324429989E0,5.455037594E0
6.419253589E0,1.173559856E1,-9.392427444E0,5.475974560E0
6.429253589E0,1.192164040E1,-1.001575756E1,4.950749874E0
6.439253589E0,1.167218876E1,-1.025803089E1,4.593621254E0
6.449253589E0,1.141735363E1,-1.046381378E1,3.811168194E0
6.459253589E0,1.160100269E1,-1.002233791E1,2.138585329E0
6.469253589E0,1.290688515E1,-9.883553505E0,2.345564365E0
6.479253589E0,1.373001671E1,-9.311669350E0,2.850450039E0
6.489253589E0,1.417448330E1,-8.813961983E0,2.883949518E0
6.499253589E0,1.435932827E1,-8.105687141E0,2.123031855E0
6.509253589E0,1.376949787E1,-7.234699249E0,1.384247899E0
6.519253589E0,1.293200970E1,-6.588637352E0,1.255633712E0
6.529253589E0,1.243490124E1,-6.369095802E0,1.250249863E0
6.539253589E0,1.232961655E1,-6.474380016E0,1.268195987E0
6.549253589E0,1.278903866E1,-6.457031727E0,1.600798368E0
6.559253589E0,1.299541950E1,-5.675775528E0,2.181057930E0
6.569253589E0,1.293859005E1,-4.721637249E0,2.656033039E0
6.579253589E0,1.273280716E1,-4.013959885E0,2.770290375E0
6.589253589E0,1.245045471E1,-3.741178274E0,2.732603550E0
6.599253589E0,1.187617683E1,-3.832105398E0,2.638685226E0
6.609253589E0,1.092443180E1,-3.783650875E0,2.429313183E0
6.619253589E0,9.958329201E0,-3.483351469E0,2.489732027E0
6.629253589E0,8.667402267E0,-3.072384357E0,2.415554523E0
6.639253589E0,7.452445984E0,-2.952144861E0,2.157727718E0
6.649253589E0,6.605386734E0,-3.023929596E0,2.024926186E0
6.659253589E0,5.809175014E0,-2.875574589E0,4.666004181E-1
6.669253589E0,5.133202553E0,-2.597409010E0,-5.491527915E-1
6.679253589E0,4.471587181E0,-2.533999205E0,-1.528415442E0
6.689253589E0,3.848855257E0,-3.372683525E0,-2.235494614E0
6.699253589E0,3.415156126E0,-4.733601570E0,-1.996810555E0
6.709253589E0,4.030709743E0,-5.406582832E0,1.034895778E-1
6.719253589E0,4.595416069E0,-5.312066078E0,2.979064286E-1
6.729253589E0,5.644070625E0,-4.828716278E0,1.195813060E0
6.739253589E0,7.162914753E0,-4.028914928E0,5.700899959E-1
6.749253589E0,8.629714966E0,-3.273381472E0,1.495514214E-1
6.759253589E0,9.565906525E0,-2.428116798E0,-2.344966233E-1
6.769253589E0,9.792028427E0,-2.194816589E0,-2.291127682E0
6.779253589E0,9.607781410E0,-1.719841242E0,-9.577272534E-1
6.789253589E0,9.900901794E0,-2.465205431E0,-3.720839322E-1
6.799253589E0,9.873384476E0,-3.311068296E0,2.350948304E-1
6.809253589E0,9.305686951E0,-4.716851711E0,7.172485590E-1
6.819253589E0,8.450851440E0,-4.826921463E0,1.321436286E0
6.829253589E0,7.506284714E0,-4.277170658E0,-2.159522474E-1
6.839253589E0,7.144370079E0,-3.471985579E0,-1.993221283E0
6.849253589E0,6.921239376E0,-2.767299414E0,-3.656233072E0
6.859253589E0,6.720840454E0,-2.693720102E0,-3.206382275E0
6.869253589E0,7.431509018E0,-3.109472990E0,-1.716850281E0
6.879253589E0,6.525227547E0,-4.734199524E0,-7.250252366E-1
6.889253589E0,6.601797581E0,-9.419346809E0,3.823132277E0
6.899253589E0,2.076970100E0,-6.605386734E0,-2.032702923E0
6.909253589E0,3.250051260E0,-7.040880680E0,-4.209573269E0
6.919253589E0,7.975875854E0,-7.449455261E0,-3.317648649E0
6.929253589E0,9.582656860E0,-7.138986588E0,-3.022135019E0
6.939253589E0,1.222672558E1,-6.164509296E0,-3.087339401E0
6.949253589E0,1.116610718E1,-5.468197823E0,-2.081755638E0
6.959253589E0,7.844270706E0,-6.930810928E0,9.607182741E-1
6.969253589E0,6.574280262E0,-7.074379921E0,-7.686942816E-1
6.979253589E0,7.479365349E0,-6.295516491E0,3.457628787E-1
6.989253589E0,6.987640381E0,-7.225128174E0,4.336991012E-1
6.999253589E0,9.344570160E0,-4.703691006E0,8.470591903E-1
7.009253589E0,6.243472576E0,-3.789632797E0,-2.991028428E-1
7.019253589E0,4.923830986E0,-4.917848587E0,-6.753742099E-1
7.029253589E0,3.995415688E0,-4.733601570E0,-1.098903775E0
7.039253589E0,3.858426571E0,-3.983451605E0,-2.449652195E0
7.049253589E0,4.151547432E0,-2.799004316E0,-4.347160339E0
7.059253589E0,3.963112593E0,-1.177866936E0,-4.926223755E0
7.069253589E0,4.925625324E0,-9.774680734E-1,-3.906282902E0
7.079253589E0,5.058426857E0,-2.758326292E0,-2.269592285E0
7.089253589E0,4.864608288E0,-3.985844374E0,-1.229910851E0
7.099253589E0,5.369493961E0,-3.069991350E0,-2.145763636E0
7.109253589E0,4.050450325E0,-4.141975880E0,-2.354537487E0
7.119253589E0,1.402792215E0,-1.569332695E1,-4.511068821E0
7.129253589E0,2.263610125E0,-2.081157446E0,2.277369022E0
7.139253589E0,5.090730190E0,-3.771088600E0,-3.463610709E-1
7.149253589E0,3.800400496E0,-8.614161491E0,-4.328018188E0
7.159253589E0,5.033302307E0,-1.331964684E1,-3.203989506E0
7.169253589E0,5.366502762E0,-1.698246002E1,-5.198407173E0
7.179253589E0,3.487539053E0,-2.002852440E1,-5.866602898E0
7.189253589E0,2.437089920E0,-1.837687874E1,-4.543372154E0
7.199253589E0,5.069194794E0,-1.639143372E1,-2.653042078E0
7.209253589E0,6.282954216E0,-1.306241894E1,-2.129612207E0
7.219253589E0,5.845665932E0,-1.241456223E1,-2.452643216E-1
7.229253589E0,7.577471256E0,-1.457049561E1,-3.768695593E-1
7.239253589E0,7.621140003E0,-1.621556091E1,-5.641079545E-1
7.249253589E0,7.203592777E0,-1.484387493E1,-1.088734269E0
7.259253589E0,4.750949383E0,-1.514716530E1,-1.157527924E0
7.269253589E0,3.763910055E0,-1.227996540E1,-1.301097274E0
7.279253589E0,3.477967739E0,-1.020718288E1,-2.926422119E0
7.289253589E0,2.602792740E0,-8.772686005E0,-2.901895761E0
7.299253589E0,2.746362209E0,-7.350750923E0,-2.212164640E0
7.309253589E0,2.646461725E0,-6.205785751E0,-1.606780410E0
7.319253589E0,2.312663078E0,-5.931209087E0,-1.232901812E0
7.329253589E0,2.136192322E0,-5.474180222E0,-8.135597110E-1
7.339253589E0,1.562513232E0,-5.093721390E0,-5.264210105E-1
7.349253589E0,1.347757339E0,-5.014758110E0,-1.483550072E-1
7.359253589E0,1.320239902E0,-5.200201988E0,3.864408433E-1
7.369253589E0,1.387238979E0,-5.706882000E0,2.973082066E-1
7.379253589E0,2.056631088E0,-6.981658459E0,-5.264209956E-2
7.389253589E0,3.046063185E0,-8.519046783E0,-5.282155871E-1
7.399253589E0,4.308277130E0,-1.115952682E1,-1.344168067E0
7.409253589E0,5.498706341E0,-1.248993587E1,-1.913061738E0
7.419253589E0,3.381656647E0,-1.232961655E1,-1.092323542E0
7.429253589E0,3.536591768E0,-9.043074608E0,6.915257573E-1
7.439253589E0,3.711866140E0,-8.454441071E0,-9.391828626E-2
7.449253589E0,3.528815269E0,-8.327022552E0,-5.922235847E-1
7.459253589E0,2.820539713E0,-8.056633949E0,-1.048056364E0
7.469253589E0,3.680161238E0,-8.678169250E0,-1.781456470E0
7.479253589E0,3.990629911E0,-8.075178146E0,-1.718644857E0
7.489253589E0,4.050450325E0,-8.464610100E0,-7.154539824E-1
7.499253589E0,3.709473372E0,-7.591229916E0,-1.122832060E0
7.509253589E0,3.612564087E0,-6.544968128E0,-1.566700578E0
7.519253589E0,3.087339401E0,-6.452246189E0,-1.228116274E0
7.529253589E0,2.103291035E0,-6.571289062E0,-6.819544435E-1
7.539253589E0,1.241276741E0,-4.875376225E0,-1.014556766E0
7.549253589E0,7.441678643E-1,-4.790431023E0,-8.865407705E-1
7.559253589E0,2.221735716E0,-6.609574318E0,-1.347757339E0
7.569253589E0,3.878765583E0,-8.280961037E0,-2.793620527E-1
7.579253589E0,4.554738045E0,-9.591031075E0,3.858426511E-1
7.589253589E0,3.435495138E0,-8.721240044E0,4.540380836E-1
7.599253589E0,3.296711445E0,-8.696115494E0,2.811566591E-1
7.609253589E0,3.573680639E0,-1.041057301E1,-3.367897868E-1
7.619253589E0,3.598206997E0,-1.112483025E1,-1.064806059E-1
7.629253589E0,3.803989887E0,-1.093400288E1,-4.187439568E-3
7.639253589E0,4.124029636E0,-1.091366386E1,-1.178465188E-1
7.649253589E0,3.921836376E0,-1.005882835E1,-6.161518097E-1
7.659253589E0,3.445664644E0,-1.073539925E1,3.738785386E-1
7.669253589E0,3.129213810E0,-1.164048386E1,-3.607180119E-1
7.679253589E0,2.410768747E0,-1.223270798E1,-1.415952802E0
7.689253589E0,2.449652195E0,-1.381256866E1,-1.282552958E0
7.699253589E0,3.574877024E0,-1.209751320E1,2.572284266E-2
7.709253589E0,3.760320902E0,-1.175892830E1,-4.977070987E-1
7.719253589E0,3.774079561E0,-1.158365440E1,-9.661021233E-1
7.729253589E0,3.844667673E0,-1.173380375E1,-1.426720500E0
7.739253589E0,3.825525284E0,-1.150828075E1,-1.520638824E0
7.749253589E0,3.425923824E0,-9.165108681E0,2.404786795E-1
7.759253589E0,4.190430641E0,-8.875576973E0,2.452643216E-2
7.769253589E0,3.784847260E0,-7.613961697E0,9.409775138E-1
7.779253589E0,3.960121393E0,-8.118248940E0,-2.536391914E-1
7.789253589E0,5.820540905E0,-8.949754715E0,-1.609173268E-1
7.799253589E0,6.274579048E0,-9.397212982E0,-5.401797295E-1
7.809253589E0,5.294718266E0,-1.079103184E1,-4.809573591E-1
7.819253589E0,4.512265205E0,-1.185224915E1,3.110669367E-2
7.829253589E0,4.402793884E0,-1.236550903E1,2.189432681E-1
7.839253589E0,3.258426189E0,-1.224586773E1,-7.232306600E-1
7.849253589E0,2.244467735E0,-1.229910851E1,-7.561319470E-1
7.859253589E0,1.910668850E0,-1.180140114E1,-8.853443712E-2
7.869253589E0,1.513460279E0,-1.037707329E1,2.009970993E-1
7.879253589E0,1.422533035E0,-9.354142189E0,3.942175210E-1
7.889253589E0,1.274178028E0,-8.790632248E0,5.694918036E-1
7.899253589E0,1.135992527E0,-8.653642654E0,8.237292171E-1
7.909253589E0,7.471588850E-1,-8.839086533E0,-1.704886109E-1
7.919253589E0,-5.324030295E-2,-8.750552177E0,-1.398604870E0
7.929253589E0,-8.781659007E-1,-7.878368378E0,-2.511865616E0
7.939253589E0,-1.409372568E0,-7.180262566E0,-2.452044964E0
7.949253589E0,-1.823330879E0,-7.401598454E0,-1.573879123E0
7.959253589E0,-2.013560295E0,-7.778468132E0,-9.738788009E-1
7.969253589E0,-1.615155339E0,-8.523832321E0,-3.595215976E-1
7.979253589E0,-7.076773047E-1,-9.485149384E0,-1.099501967E0
7.989253589E0,3.194418252E-1,-1.028315544E1,-1.990828395E0
7.999253589E0,1.849053741E0,-1.123190975E1,-2.355135679E0
8.009253589E0,3.562912941E0,-1.188754272E1,-1.390229940E0
8.019253589E0,4.925625324E0,-1.198026466E1,-1.596012712E0
8.029253589E0,5.617749214E0,-1.167637634E1,-1.950748682E0
8.039253589E0,5.845067501E0,-1.137009525E1,-3.384647608E0
8.049253589E0,5.843272686E0,-1.052901745E1,-3.992424488E0
8.059253589E0,4.840680122E0,-9.955338478E0,-3.211766243E0
8.069253589E0,4.619942188E0,-9.486345291E0,-3.300898790E0
8.079253589E0,3.723830223E0,-1.132223892E1,-2.195414782E0
8.089253589E0,2.854039192E0,-1.218006516E1,-2.108076811E0
8.099253589E0,2.671586514E0,-1.119841003E1,-2.231905222E0
8.109253589E0,1.889133453E0,-8.499904633E0,-6.616154313E-1
8.119253589E0,1.935195327E0,-7.018746853E0,-1.025324464E0
8.129253589E0,1.983649969E0,-6.197410583E0,-7.280163169E-1
8.139253589E0,7.208378315E-1,-7.826922894E0,-1.336989641E0
8.149253589E0,1.313659668E0,-7.014559746E0,-1.089930773E0
8.159253589E0,6.053841114E-1,-6.065805435E0,-1.283151150E0
8.169253589E0,4.378865361E-1,-5.917450428E0,-1.311864972E0
8.179253589E0,6.430711150E-1,-5.525625706E0,-1.255633712E0
8.189253589E0,7.770691514E-1,-5.370690346E0,-1.441077471E0
8.199253589E0,3.649054468E-1,-4.494318962E0,-1.647458434E0
8.209253589E0,2.925225794E-1,-4.564309120E0,-1.950150490E0
8.219253589E0,6.604190469E-1,-5.078765869E0,-2.224726915E0
8.229253589E0,1.114457130E0,-5.220541000E0,-2.429911375E0
8.239253589E0,1.578066587E0,-5.591428280E0,-2.808575630E0
8.249253589E0,2.026720762E0,-5.936593056E0,-3.355335474E0
8.259253589E0,2.809772015E0,-6.580860615E0,-4.366302967E0
8.269253589E0,3.468396425E0,-7.421339512E0,-5.274379253E0
8.279253589E0,4.203591347E0,-9.065806389E0,-6.263811588E0
8.289253589E0,4.457230568E0,-1.077547836E1,-6.814758778E0
8.299253589E0,5.030909538E0,-1.285364532E1,-7.347760201E0
8.309253589E0,6.102295876E0,-1.470628834E1,-7.824530125E0
8.319253589E0,5.921039581E0,-1.555992699E1,-7.581658363E0
8.329253589E0,4.400400639E0,-1.451426411E1,-7.384250641E0
8.339253589E0,3.433700562E0,-1.256351566E1,-7.213163853E0
8.349253589E0,2.161915302E0,-1.087298584E1,-6.809973240E0
8.359253589E0,1.406381488E0,-9.364311218E0,-6.314659119E0
8.369253589E0,9.056833982E-1,-8.312665939E0,-5.414359570E0
8.379253589E0,5.000999570E-1,-8.212167740E0,-4.701896667E0
8.389253589E0,1.746162295E0,-8.977272034E0,-3.155534744E0
8.399253589E0,2.618346214E0,-1.038784122E1,-2.475973129E0
8.409253589E0,2.749951363E0,-1.170030499E1,-1.554736495E0
8.419253589E0,2.373680115E0,-1.243729401E1,-8.333004713E-1
8.429253589E0,1.795215130E0,-1.266221905E1,-8.895317912E-1
8.439253589E0,7.567301393E-1,-1.239422321E1,-1.016351461E0
8.449253589E0,-8.973085321E-3,-1.125942707E1,-1.284945726E0
8.459253589E0,-4.450650215E-1,-1.008096218E1,-1.466202021E0
8.469253589E0,-5.653043389E-1,-9.065806389E0,-1.555932879E0
8.479253589E0,-4.313062727E-1,-7.852645874E0,-1.188634634E0
8.489253589E0,-1.537388563E-1,-7.027122021E0,-7.800601721E-1
8.499253589E0,2.003988922E-1,-6.707081795E0,-6.568298340E-1
8.509253589E0,8.602197170E-1,-6.224329948E0,-4.689932466E-1
8.519253589E0,1.472782373E0,-6.412166595E0,-1.519442350E-1
8.529253589E0,2.386840582E0,-6.675975323E0,7.477571070E-2
8.539253589E0,3.339184046E0,-7.506882668E0,6.000002623E-1
8.549253589E0,3.837489367E0,-8.355736732E0,9.750752449E-1
8.559253589E0,3.656831264E0,-8.998209953E0,1.180858016E0
8.569253589E0,2.930011272E0,-1.001695347E1,9.320043921E-1
8.579253589E0,2.226521492E0,-1.089033413E1,4.689932466E-1
8.589253589E0,1.618744493E0,-1.121276665E1,-9.571290761E-2
8.599253589E0,1.441077471E0,-1.112901783E1,-5.318048596E-1
8.609253589E0,1.277767301E0,-1.062473106E1,-8.117650747E-1
8.619253589E0,1.521835208E0,-9.994820595E0,-4.235295951E-1
8.629253589E0,1.445863128E0,-9.433703423E0,1.064806059E-1
8.639253589E0,1.349551916E0,-9.044271469E0,-2.123630047E-1
8.649253589E0,1.252642632E0,-8.973084450E0,-8.775677085E-1
8.659253589E0,1.314856052E0,-8.523234367E0,-8.841479421E-1
8.669253589E0,1.243669510E0,-8.300702095E0,-4.905286431E-1
8.679253589E0,9.565308690E-1,-8.376075745E0,-6.981059909E-1
8.689253589E0,7.555337548E-1,-8.456234932E0,-9.050851464E-1
8.699253589E0,5.545366406E-1,-8.551349640E0,-1.069591761E0
8.709253589E0,3.439682424E-1,-8.800203323E0,-1.119840980E0
8.719253589E0,1.824527234E-1,-8.923434258E0,-5.509474277E-1
8.729253589E0,1.932204217E-1,-9.018548965E0,8.494520187E-2
8.739253589E0,3.278166950E-1,-9.303893089E0,6.346961856E-1
8.749253589E0,4.384847581E-1,-9.711869240E0,7.663014531E-1
8.759253589E0,5.240281820E-1,-9.858428955E0,5.120640397E-1
8.769253589E0,7.004988194E-1,-9.951749802E0,1.387837082E-1
8.779253589E0,1.039083242E0,-9.857831001E0,-2.141576260E-1
8.789253589E0,1.445264935E0,-9.597013474E0,-5.694918036E-1
8.799253589E0,1.636092424E0,-9.781859398E0,-8.524430394E-1
8.809253589E0,1.802991867E0,-1.008156013E1,-1.083948612E0
8.819253589E0,2.046461582E0,-1.020957565E1,-1.227517962E0
8.829253589E0,2.361716032E0,-1.031246758E1,-1.600200176E0
8.839253589E0,2.762513638E0,-1.022812080E1,-2.033899307E0
8.849253589E0,3.163311481E0,-1.005344391E1,-2.352144718E0
8.859253589E0,3.488735437E0,-1.001874828E1,-2.484946251E0
8.869253589E0,3.694518089E0,-1.019222832E1,-2.288734913E0
8.879253589E0,3.853640795E0,-1.029153061E1,-1.646860242E0
8.889253589E0,3.266801119E0,-1.035015392E1,-7.878368497E-1
8.899253589E0,2.698505640E0,-1.037707329E1,-3.882354796E-1
8.909253589E0,2.316252232E0,-1.031605625E1,-2.356930375E-1
8.919253589E0,1.933998942E0,-1.022154045E1,-1.028913707E-1
8.929253589E0,1.819143414E0,-1.009412193E1,1.322034448E-1
8.939253589E0,2.029711723E0,-1.006002426E1,4.725824669E-2
8.949253589E0,2.066800594E0,-1.003789139E1,-3.690928817E-1
8.959253589E0,2.018345833E0,-9.900901794E0,-9.236295223E-1
8.969253589E0,2.136790514E0,-9.790832520E0,-1.655235052E0
8.979253589E0,1.964507341E0,-9.594620705E0,-1.601994753E0
8.989253589E0,1.945963025E0,-1.010847950E1,-1.404586911E0
8.999253589E0,1.951346874E0,-1.064507008E1,-1.244866014E0
9.009253589E0,1.315454245E0,-1.151186943E1,-1.238285661E0
9.019253589E0,8.189435601E-1,-1.201555920E1,-1.100100160E0
9.029253589E0,6.801598072E-1,-1.226501083E1,-1.073180914E0
9.039253589E0,4.510470629E-1,-1.215194988E1,-7.716853023E-1
9.049253589E0,8.566305041E-1,-9.887741089E0,-8.039883971E-1
9.059253589E0,2.889333367E-1,-9.453444481E0,8.255238086E-2
9.069253589E0,3.541377485E-1,-9.028120041E0,-6.568298340E-1
9.079253589E0,5.617151260E-1,-9.327222824E0,-2.448455811E0
9.089253589E0,1.674975902E-1,-1.004028416E1,-4.049253941E0
9.099253589E0,-1.094716311E0,-1.167697430E1,-4.193421841E0
9.109253589E0,-3.466601849E0,-1.207717419E1,-1.825723648E0
9.119253589E0,-4.506881237E0,-1.299960709E1,-6.095715761E-1
9.129253589E0,-5.030909538E0,-1.395673656E1,8.614161611E-2
9.139253589E0,-4.721637249E0,-1.407099342E1,-7.896314859E-1
9.149253589E0,-3.489333630E0,-1.389811230E1,-1.430309772E0
9.159253589E0,-1.716850281E0,-1.289611721E1,-2.221137524E0
9.169253589E0,-1.046859920E-1,-1.214776230E1,-1.539781332E0
9.179253589E0,1.269392371E0,-1.194736385E1,-5.330012441E-1
9.189253589E0,4.579264164E0,-1.043091202E1,7.633104324E-1
9.199253589E0,6.130411625E0,-8.822337151E0,-6.520441771E-1
9.209253589E0,5.230710506E0,-8.551948547E0,-1.123430252E0
9.219253589E0,3.733401537E0,-8.645866394E0,-1.608574986E0
9.229253589E0,2.651845694E0,-8.339585304E0,-1.764108539E0
9.239253589E0,1.431506157E0,-7.637889862E0,-2.304886341E0
9.249253589E0,1.557129383E0,-6.968497753E0,-1.496112347E0
9.259253589E0,1.408774376E0,-6.886543751E0,-1.587039590E0
9.269253589E0,1.029511929E0,-6.619743824E0,-2.194816589E0
9.279253589E0,1.206580877E0,-6.850052834E0,-2.070987940E0
9.289253589E0,9.816554785E-1,-6.662814617E0,-2.243271112E0
9.299253589E0,4.749752879E-1,-6.573681831E0,-2.029113531E0
9.309253589E0,9.332008660E-2,-6.460621357E0,-1.752144337E0
9.319253589E0,1.262213886E-1,-5.786443233E0,-1.657029629E0
9.329253589E0,-1.794617027E-1,-5.152345181E0,-1.284945726E0
9.339253589E0,-2.799602449E-1,-4.878366947E0,-1.513460279E0
9.349253589E0,-2.321037948E-1,-4.816751957E0,-1.374078393E0
9.359253589E0,-2.207378894E-1,-5.219942570E0,-5.006981492E-1
9.369253589E0,-1.615155302E-2,-5.274977684E0,-8.255237937E-1
9.379253589E0,-7.776673418E-3,-5.427519798E0,-1.707877159E0
9.389253589E0,1.788634956E-1,-5.550750256E0,-1.817947030E0
9.399253589E0,3.744767308E-1,-5.879763603E0,-1.962712765E0
9.409253589E0,6.897311211E-1,-6.416952133E0,-2.539382935E0
9.419253589E0,1.247856975E0,-7.429714203E0,-3.544966698E0
9.429253589E0,1.834696770E0,-8.920442581E0,-4.533800602E0
9.439253589E0,2.063211441E0,-1.064088249E1,-5.702694416E0
9.449253589E0,2.420938253E0,-1.275853062E1,-6.758527756E0
9.459253589E0,4.080958843E0,-1.529671669E1,-7.079763889E0
9.469253589E0,5.410770416E0,-1.601994705E1,-6.805785656E0
9.479253589E0,5.740381718E0,-1.512024593E1,-6.717849731E0
9.489253589E0,4.587639332E0,-1.295593834E1,-6.339783669E0
9.499253589E0,3.973880291E0,-9.814162254E0,-6.786643028E0
9.509253589E0,3.293122053E0,-9.661619186E0,-7.554141045E0
9.519253589E0,1.782652855E0,-8.469395638E0,-7.035496712E0
9.529253589E0,1.301097274E0,-8.236693382E0,-6.096911907E0
9.539253589E0,1.141376376E0,-1.110329533E1,-5.306682587E0
9.549253589E0,1.222134113E0,-1.321675587E1,-3.404388428E0
9.559253589E0,7.286145091E-1,-1.412961769E1,-1.400997639E0
9.569253589E0,-5.922235921E-2,-1.446341610E1,-8.793623447E-1
9.579253589E0,-1.197607756E0,-1.426301765E1,-9.302098155E-1
9.589253589E0,-1.594218135E0,-1.299302673E1,-5.503492355E-1
9.599253589E0,-1.446461320E0,-1.139581776E1,-2.572284341E-1
9.609253589E0,-1.413560033E0,-9.544969559E0,-5.862415582E-2
9.619253589E0,-1.542772412E0,-8.556734085E0,2.919243574E-1
9.629253589E0,-1.442273855E0,-7.276573658E0,6.550351977E-1
9.639253589E0,-1.299302697E0,-6.410371780E0,6.945167780E-1
9.649253589E0,-1.222732425E0,-6.458228111E0,6.849454641E-1
9.659253589E0,-1.189232826E0,-6.950551510E0,5.718846321E-1
9.669253589E0,-1.060020447E0,-7.839485168E0,4.420739710E-1
9.679253589E0,-7.148557901E-1,-8.644669533E0,7.064808607E-1
9.689253589E0,-1.926222295E-1,-9.574281693E0,9.421738982E-1
9.699253589E0,-2.931207791E-2,-9.762118340E0,1.137787223E0
9.709253589E0,8.015955985E-2,-9.551549911E0,1.125224829E0
9.719253589E0,-1.734796464E-1,-9.804591179E0,1.036690354E0
9.729253589E0,-1.399801224E-1,-9.808179855E0,7.968099117E-1
9.739253589E0,-2.805584669E-1,-9.802198410E0,-1.178465188E-1
9.749253589E0,-4.911268353E-1,-1.001695347E1,-2.781656384E-1
9.759253589E0,-3.708875179E-1,-1.052901745E1,-1.998006850E-1
9.769253589E0,-1.220339537E-1,-1.074616623E1,3.948157281E-2
9.779253589E0,1.124626622E-1,-1.083230782E1,1.501496136E-1
9.789253589E0,5.527420044E-1,-1.056490993E1,3.014956415E-1
9.799253589E0,1.222134113E0,-9.963115692E0,5.712863803E-1
9.809253589E0,1.187438250E0,-9.375677109E0,-5.204389244E-2
9.819253589E0,1.225125194E0,-9.062815666E0,-3.469592929E-1
9.829253589E0,1.196411371E0,-8.736793518E0,-3.786641955E-1
9.839253589E0,1.062413216E0,-8.465208054E0,-2.769692242E-1
9.849253589E0,9.140582681E-1,-8.277970314E0,-3.481557071E-1
9.859253589E0,8.422735929E-1,-8.225327492E0,-3.146561682E-1
9.869253589E0,9.332008362E-1,-8.201997757E0,-2.135594189E-1
9.879253589E0,9.242277741E-1,-8.132605553E0,1.507478207E-1
9.889253589E0,7.668996453E-1,-8.085348129E0,2.464607358E-1
9.899253589E0,5.994020700E-1,-8.123632431E0,1.782652885E-1
9.909253589E0,5.844469070E-1,-8.146365166E0,3.469592705E-2
9.919253589E0,5.988038778E-1,-8.355736732E0,-1.914258152E-1
9.929253589E0,5.934200287E-1,-8.574081421E0,-5.138586760E-1
9.939253589E0,5.455635786E-1,-9.066405296E0,-6.227321029E-1
9.949253589E0,5.072783828E-1,-9.381659508E0,-7.106683254E-1
9.959253589E0,4.977070987E-1,-9.672387123E0,-8.757730722E-1
9.969253589E0,5.503492355E-1,-9.824331284E0,-1.019940615E0
9.979253589E0,6.263213158E-1,-9.953543663E0,-1.101894855E0
9.989253589E0,7.938188910E-1,-9.818947792E0,-1.129412293E0
9.999253589E0,8.464609981E-1,-9.857233047E0,-1.167697430E0
1.000925359E1,8.273184299E-1,-9.603593826E0,-1.098903775E0
1.001925359E1,7.363911867E-1,-9.373882294E0,-1.107278705E0
1.002925359E1,6.927221417E-1,-9.090931892E0,-1.235294700E0
1.003925359E1,8.027920127E-1,-8.999405861E0,-1.315454245E0
1.004925359E1,9.427721500E-1,-8.836693764E0,-5.766702294E-1
1.005925359E1,1.345962763E0,-8.985647202E0,3.768695593E-1
1.006925359E1,1.295713425E0,-1.036092186E1,1.387837172E0
1.007925359E1,1.329213023E0,-1.232423306E1,8.536394835E-1
1.008925359E1,8.967102766E-1,-1.676351738E1,1.173679471E0
1.009925359E1,1.519442350E-1,-2.154138565E1,6.131607890E-1
1.010925359E1,-3.583251834E-1,-1.463450336E1,4.205385745E-1
1.011925359E1,-2.476571500E-1,-1.175892830E1,-1.030708313E0
1.012925359E1,-1.728814393E-1,-1.115892887E1,-2.012962103E0
1.013925359E1,-1.980060786E-1,-1.061575794E1,-2.378465652E0
1.014925359E1,-2.745763958E-1,-1.068096161E1,-2.728415966E0
1.015925359E1,-1.746760458E-1,-1.128215885E1,-2.961716175E0
1.016925359E1,-3.361915946E-1,-1.178704453E1,-2.601596355E0
1.017925359E1,-6.454638839E-1,-1.205683517E1,-1.599003673E0
1.018925359E1,-9.158528447E-1,-1.206820107E1,-5.994020700E-1
1.019925359E1,-1.267597795E0,-1.167996597E1,7.136593461E-1
1.020925359E1,-1.324427366E0,-1.076530933E1,1.427916884E0
1.021925359E1,-8.201399446E-1,-9.408578873E0,3.708875179E-1
1.022925359E1,-3.110669553E-1,-8.391031265E0,-8.225327730E-1
1.023925359E1,-5.808576941E-1,-7.843074322E0,-1.931007862E0
1.024925359E1,-1.845464468E0,-8.279166222E0,-3.552743435E0
1.025925359E1,-3.285345554E0,-9.043074608E0,-3.984049797E0
1.026925359E1,-4.701298237E0,-9.457631111E0,-1.502094388E0
1.027925359E1,-5.739783287E0,-1.088674450E1,4.001995921E-1
1.028925359E1,-6.984051228E0,-1.319462204E1,1.941775560E0
1.029925359E1,-5.873781204E0,-1.320239925E1,2.491526604E0
1.030925359E1,-3.415754318E0,-1.310429287E1,2.439482689E0
1.031925359E1,-2.088335991E0,-1.262393379E1,1.619342685E0
1.032925359E1,1.037886858E0,-1.125763226E1,1.601396561E0
1.033925359E1,2.511865616E0,-1.025204849E1,-5.509474277E-1
1.034925359E1,4.719842434E0,-9.505488396E0,-9.589236975E-1
1.035925359E1,5.505885124E0,-1.011206818E1,-2.626122952E0
1.036925359E1,3.468994617E0,-1.056610680E1,-2.952743053E0
1.037925359E1,2.273779631E0,-9.979865074E0,-2.718844652E0
1.038925359E1,2.163709879E0,-9.186644554E0,-2.541775942E0
1.039925359E1,1.135394335E0,-8.609375954E0,-2.413161755E0
1.040925359E1,7.058826685E-1,-7.634300709E0,-1.493719578E0
1.041925359E1,3.050848842E-2,-7.075576782E0,-2.148754835E0
1.042925359E1,-4.325026870E-1,-6.653841496E0,-1.554138303E0
1.043925359E1,-6.753742099E-1,-6.552744865E0,-9.320043921E-1
1.044925359E1,-4.558327198E-1,-6.359524250E0,-1.159920812E0
1.045925359E1,-7.082754970E-1,-6.334399700E0,-6.819544435E-1
1.046925359E1,-1.085743308E0,-6.255436420E0,-3.044866920E-1
1.047925359E1,-9.373882413E-1,-5.912066460E0,-1.148554832E-1
1.048925359E1,-7.226324677E-1,-5.647659779E0,-2.416750938E-1
1.049925359E1,-7.274180651E-1,-5.508875847E0,-2.554338276E-1
1.050925359E1,-8.853443861E-1,-5.617151260E0,-5.533402562E-1
1.051925359E1,-9.433703423E-1,-5.854040623E0,-9.954141974E-1
1.052925359E1,-6.568298340E-1,-6.043073654E0,-1.268794179E0
1.053925359E1,-2.697907388E-1,-6.208776474E0,-1.502692580E0
1.054925359E1,5.982056633E-2,-6.799205780E0,-1.917249203E0
1.055925359E1,4.079762697E-1,-7.445865631E0,-2.551945448E0
1.056925359E1,6.460621357E-1,-8.594420433E0,-3.353540897E0
1.057925359E1,9.421738982E-1,-9.972686768E0,-4.007379532E0
1.058925359E1,1.501496196E0,-1.219861031E1,-4.651647091E0
1.059925359E1,2.424527645E0,-1.431924915E1,-5.173880577E0
1.060925359E1,3.768695593E0,-1.552044582E1,-5.018347263E0
1.061925359E1,4.285545349E0,-1.560180187E1,-4.997410297E0
1.062925359E1,3.844667673E0,-1.494437408E1,-5.301896572E0
1.063925359E1,3.398406267E0,-1.319103336E1,-5.598606586E0
1.064925359E1,2.933002472E0,-1.126002502E1,-6.081358910E0
1.065925359E1,2.320439816E0,-1.012642574E1,-6.076572895E0
1.066925359E1,1.718644857E0,-9.966704369E0,-5.623133183E0
1.067925359E1,6.640082598E-1,-1.064865875E1,-4.616353035E0
1.068925359E1,-3.272185028E-1,-1.233858967E1,-3.184846878E0
1.069925359E1,-1.399801254E0,-1.400937843E1,-1.748555183E0
1.070925359E1,-2.219342947E0,-1.426421356E1,-9.631111473E-2
1.071925359E1,-2.873181820E0,-1.405663681E1,9.798609018E-1
1.072925359E1,-3.062813044E0,-1.338724422E1,1.874178290E0
1.073925359E1,-2.326421738E0,-1.185823059E1,2.327019930E0
1.074925359E1,-1.295115232E0,-1.009472084E1,2.117049932E0
1.075925359E1,-4.785645306E-1,-8.962317467E0,1.773081541E0
1.076925359E1,2.273181453E-2,-7.945965767E0,1.513460279E0
1.077925359E1,1.609173268E-1,-7.183851719E0,1.336989641E0
1.078925359E1,-1.268195957E-1,-6.497111797E0,9.810572863E-1
1.079925359E1,-4.151547253E-1,-6.354738712E0,3.726821244E-1
1.080925359E1,-1.056431174E0,-6.605386734E0,-2.344966233E-1
1.081925359E1,-1.263410330E0,-7.319046497E0,-9.248259664E-1
1.082925359E1,-1.147956610E0,-7.921439171E0,-1.014556766E0
1.083925359E1,-7.692924738E-1,-7.924430370E0,-4.480560422E-1
1.084925359E1,-6.963114142E-1,-7.959724426E0,5.670989752E-1
1.085925359E1,-6.963114142E-1,-7.959724426E0,5.670989752E-1
1.086925359E1,-6.442674994E-1,-9.613164902E0,2.481955290E0
1.087925359E1,-8.913264275E-1,-1.020598698E1,3.109472990E0
1.088925359E1,-1.149751306E0,-1.032203865E1,3.212962627E0
1.089925359E1,-1.145563841E0,-1.026221848E1,2.911466837E0
1.090925359E1,-8.063812256E-1,-1.038365364E1,2.404786825E0
1.091925359E1,-1.627119333E-1,-1.004327488E1,1.676770449E0
1.092925359E1,4.911268353E-1,-9.534799576E0,8.488538265E-1
1.093925359E1,1.006181955E0,-9.381061554E0,3.828516230E-2
1.094925359E1,1.262213945E0,-9.407979965E0,-1.009771109E0
1.095925359E1,1.042074203E0,-8.977272034E0,-1.003190875E0
1.096925359E1,1.329213023E0,-9.354740143E0,-1.057029366E0
1.097925359E1,1.320239902E0,-9.217152596E0,-8.554341197E-1
1.098925359E1,9.667003751E-1,-9.170493126E0,-6.885347366E-1
1.099925359E1,6.317051649E-1,-9.080163956E0,-6.939185858E-1
1.100925359E1,3.888336718E-1,-9.068798065E0,-2.542374134E-1
1.101925359E1,1.256231815E-1,-8.945567131E0,-1.064806059E-1
1.102925359E1,-1.316052489E-2,-8.796015739E0,-2.685943544E-1
1.103925359E1,-2.763710022E-1,-8.814560890E0,-4.037888348E-1
1.104925359E1,-6.687939167E-1,-9.220742226E0,-5.706881881E-1
1.105925359E1,-9.792626500E-1,-9.574281693E0,-7.178468108E-1
1.106925359E1,-1.132403374E0,-9.695118904E0,-5.371887088E-1
1.107925359E1,-1.021735311E0,-9.735796928E0,-1.537388563E-1
1.108925359E1,-7.435696125E-1,-9.870991707E0,1.094716340E-1
1.109925359E1,-2.745763958E-1,-9.954740524E0,5.036891699E-1
1.110925359E1,1.609173268E-1,-9.969695091E0,6.777670383E-1
1.111925359E1,4.289134443E-1,-9.830313683E0,6.604190469E-1
1.112925359E1,4.331009090E-1,-9.546764374E0,4.037888348E-1
1.113925359E1,2.560320199E-1,-9.378668785E0,3.607180119E-1
1.114925359E1,-7.417750359E-2,-9.473783493E0,1.818545163E-1
1.115925359E1,-1.513460279E-1,-9.511469841E0,3.290131316E-2
1.116925359E1,-1.890329868E-1,-9.841679573E0,4.007977992E-2
1.117925359E1,-2.075773627E-1,-1.037348461E1,1.848455518E-1
1.118925359E1,-1.884347796E-1,-1.069053364E1,3.744767308E-1
1.119925359E1,-1.926222295E-1,-1.088315582E1,4.881358147E-1
1.120925359E1,-7.776673883E-2,-1.102672482E1,5.359922647E-1
1.121925359E1,1.998006850E-1,-1.102193928E1,5.557330847E-1
1.122925359E1,6.586244106E-1,-1.102552891E1,4.235295951E-1
1.123925359E1,1.174277663E0,-1.106560802E1,4.247260094E-2
1.124925359E1,1.537388563E0,-1.099681473E1,-1.902294010E-1
1.125925359E1,1.996212244E0,-1.107278633E1,-1.794617027E-1
1.126925359E1,2.302493572E0,-1.127797127E1,-2.374876440E-1
1.127925359E1,2.402992249E0,-1.159860992E1,-2.338984162E-1
1.128925359E1,2.302493572E0,-1.186660576E1,-2.602194548E-1
1.129925359E1,2.111665964E0,-1.236909866E1,-3.020938635E-1
1.130925359E1,1.680957913E0,-1.241276741E1,-2.422732860E-1
1.131925359E1,1.193420291E0,-1.219382381E1,-1.322034448E-1
1.132925359E1,1.002592683E0,-1.212263775E1,-8.494520187E-2
1.133925359E1,9.451649189E-1,-1.196531010E1,-1.674975827E-2
1.134925359E1,9.349954724E-1,-1.146221828E1,-9.990034252E-2
1.135925359E1,9.104689956E-1,-1.039382362E1,-2.895315289E-1
1.136925359E1,6.837490797E-1,-9.360722542E0,-9.684949517E-1
1.137925359E1,2.518445849E-1,-8.638090134E0,-1.717448473E0
1.138925359E1,-8.344969153E-1,-8.324031830E0,-2.385046005E0
1.139925359E1,-1.929811478E0,-8.749356270E0,-2.588435888E0
1.140925359E1,-2.889931440E0,-9.046066284E0,-2.005185366E0
1.141925359E1,-3.934398651E0,-9.792626381E0,-5.916253924E-1
1.142925359E1,-4.925625324E0,-1.127677536E1,8.841479421E-1
1.143925359E1,-5.348556995E0,-1.263948727E1,2.137987137E0
1.144925359E1,-5.476572990E0,-1.294876003E1,2.600399971E0
1.145925359E1,-4.021736622E0,-1.159322548E1,1.048654556E0
1.146925359E1,-1.246062398E0,-1.107458115E1,-4.025924206E-1
1.147925359E1,4.372883439E-1,-1.066839981E1,-1.555334684E-2
1.148925359E1,2.179861546E0,-9.967302322E0,1.360319614E0
1.149925359E1,4.129413605E0,-1.011386299E1,5.144568682E-1
1.150925359E1,5.717051506E0,-9.165707588E0,6.945167780E-1
1.151925359E1,6.031707764E0,-9.111269951E0,3.655036688E-1
1.152925359E1,3.671188116E0,-9.912267685E0,-1.908874273E0
1.153925359E1,1.719841242E0,-9.803394318E0,-1.972882271E0
1.154925359E1,1.304088354E0,-9.759725571E0,-2.075175524E0
1.155925359E1,6.484549642E-1,-9.444471359E0,-2.070389748E0
1.156925359E1,-3.948157430E-1,-8.882157326E0,-2.626721144E0
1.157925359E1,2.087737769E-1,-8.069794655E0,-1.546361685E0
1.158925359E1,-2.111666054E-1,-8.177471161E0,-1.208973646E0
1.159925359E1,-5.605186820E-1,-7.766504288E0,-1.198205948E0
1.160925359E1,-1.071984529E0,-7.384250641E0,-1.154536963E0
1.161925359E1,-1.325025558E0,-7.032505512E0,-8.368897438E-1
1.162925359E1,-1.573280931E0,-6.737590313E0,-5.581258535E-1
1.163925359E1,-1.654636860E0,-6.658029079E0,-2.757728100E-1
1.164925359E1,-1.731207132E0,-6.610172749E0,-2.757728100E-1
1.165925359E1,-1.807777524E0,-6.479165554E0,-5.479564071E-1
1.166925359E1,-1.598405480E0,-6.400202274E0,-8.961120844E-1
1.167925359E1,-1.125224829E0,-6.436094761E0,-1.229910851E0
1.168925359E1,-5.282155871E-1,-6.601797581E0,-1.487139225E0
1.169925359E1,-8.374879509E-2,-6.881159782E0,-1.884945989E0
1.170925359E1,1.501496136E-1,-7.366304398E0,-2.370688915E0
1.171925359E1,3.978067636E-1,-7.931608677E0,-2.924029350E0
1.172925359E1,1.052243710E0,-8.745168686E0,-3.659224033E0
1.173925359E1,2.065006018E0,-1.049372387E1,-4.734199524E0
1.174925359E1,3.380460262E0,-1.168475151E1,-4.636094093E0
1.175925359E1,5.020740032E0,-1.211366463E1,-4.737788677E0
1.176925359E1,5.887540340E0,-1.272144127E1,-3.924229145E0
1.177925359E1,5.778666496E0,-1.365224934E1,-3.485744476E0
1.178925359E1,4.392025948E0,-1.324786282E1,-3.349353552E0
1.179925359E1,2.852244616E0,-1.186600780E1,-3.332005501E0
1.180925359E1,1.688734531E0,-1.068814087E1,-3.597010612E0
1.181925359E1,9.714859724E-1,-1.003789139E1,-3.605385542E0
1.182925359E1,4.408775866E-1,-9.394820213E0,-3.157927752E0
1.183925359E1,1.980060786E-1,-8.899505615E0,-2.772683144E0
1.184925359E1,7.776673418E-3,-8.903693199E0,-2.155933142E0
1.185925359E1,-1.818545163E-1,-9.741181374E0,-1.424327731E0
1.186925359E1,-5.383850932E-1,-1.144726372E1,-3.930211067E-1
1.187925359E1,-8.997012973E-1,-1.240977669E1,4.331009090E-1
1.188925359E1,-1.085145116E0,-1.267238903E1,1.033699393E0
1.189925359E1,-1.127617717E0,-1.269332600E1,1.335195065E0
1.190925359E1,-1.128215909E0,-1.226620674E1,1.198804140E0
1.191925359E1,-7.806583643E-1,-1.154357433E1,4.295116663E-1
1.192925359E1,-3.714857101E-1,-1.075573826E1,-7.136593461E-1
1.193925359E1,8.015955985E-2,-9.890732765E0,-1.970489502E0
1.194925359E1,3.798605800E-1,-9.483952522E0,-2.694318295E0
1.195925359E1,5.515456200E-1,-9.486943245E0,-2.971287489E0
1.196925359E1,7.668996453E-1,-9.415757179E0,-2.797807932E0
1.197925359E1,1.150947690E0,-9.354142189E0,-1.972284079E0
1.198925359E1,1.549352646E0,-9.077172279E0,-1.045065284E0
1.199925359E1,2.032702923E0,-8.472985268E0,-3.834498227E-1
1.200925359E1,2.516052961E0,-7.813762188E0,-1.184447184E-1
1.201925359E1,2.583052158E0,-7.475776196E0,2.093719840E-1
1.202925359E1,2.277369022E0,-7.380661488E0,2.422732860E-1
1.203925359E1,1.639083505E0,-7.401000500E0,1.853839397E0
1.204925359E1,1.234098315E0,-8.768498421E0,2.355733871E0
1.205925359E1,4.426721931E-1,-9.933204651E0,3.297907829E0
1.206925359E1,-2.638086975E-1,-1.045842934E1,3.761517286E0
1.207925359E1,-4.307080805E-1,-1.055653572E1,4.124029636E0
1.208925359E1,-6.795616150E-1,-1.057388306E1,3.792623997E0
1.209925359E1,-9.684949517E-1,-9.861420631E0,3.049054146E0
1.210925359E1,-5.551348329E-1,-8.842676163E0,1.744965911E0
1.211925359E1,-2.225325108E-1,-8.672187805E0,5.503492355E-1
1.212925359E1,-1.375873014E-2,-8.751151085E0,-5.748756528E-1
1.213925359E1,3.278166950E-1,-8.632107735E0,-1.971087694E0
1.214925359E1,1.064806059E-1,-8.588438988E0,-2.776272535E0
1.215925359E1,-4.486542344E-1,-8.931210518E0,-3.187239647E0
1.216925359E1,-4.821537733E-1,-8.902496338E0,-3.139383316E0
1.217925359E1,-1.854437590E-1,-8.849854469E0,-3.123830080E0
1.218925359E1,-5.563312769E-2,-9.081359863E0,-2.808575630E0
1.219925359E1,-6.580262445E-3,-9.460023880E0,-1.972882271E0
1.220925359E1,1.333998591E-1,-9.683753014E0,-1.360917926E0
1.221925359E1,2.554338276E-1,-9.997811317E0,-1.172483116E-1
1.222925359E1,5.772684813E-1,-1.000319481E1,7.651050687E-1
1.223925359E1,7.028916478E-1,-1.001276588E1,1.483550072E0
1.224925359E1,4.642075896E-1,-1.002473068E1,1.808375716E0
1.225925359E1,2.207378894E-1,-1.018325520E1,1.878365755E0
1.226925359E1,-2.721835673E-1,-1.020179939E1,1.732403636E0
1.227925359E1,-6.029912829E-1,-9.969097137E0,1.263410330E0
1.228925359E1,-8.338986635E-1,-9.850652695E0,6.741777658E-1
1.229925359E1,-8.632107973E-1,-9.714262009E0,2.632105052E-1
1.230925359E1,-7.441678643E-1,-9.512067795E0,6.400800496E-2
1.231925359E1,-4.959124923E-1,-9.442078590E0,-3.655036688E-1
1.232925359E1,-1.758724600E-1,-9.540781975E0,-5.706881881E-1
1.233925359E1,8.733802289E-2,-9.714859962E0,-2.404786795E-1
1.234925359E1,1.555334777E-1,-9.837491989E0,1.848455518E-1
1.235925359E1,7.058826834E-2,-9.989436150E0,8.063812256E-1
1.236925359E1,-1.244267747E-1,-1.025623608E1,1.325623751E0
1.237925359E1,-2.147558331E-1,-1.038305569E1,1.674377680E0
1.238925359E1,-4.486542344E-1,-1.032203865E1,1.865205288E0
1.239925359E1,-5.545366406E-1,-1.032622623E1,1.759322882E0
1.240925359E1,-4.833501875E-1,-1.048654556E1,1.390229940E0
1.241925359E1,-2.638086975E-1,-1.077906799E1,7.280163169E-1
1.242925359E1,3.649054468E-2,-1.099083233E1,1.818545163E-1
1.243925359E1,6.568298340E-1,-1.118764210E1,-4.295116663E-1
1.244925359E1,1.497906923E0,-1.136590767E1,-8.344969153E-1
1.245925359E1,2.321038008E0,-1.188933754E1,-4.660021961E-1
1.246925359E1,2.581257343E0,-1.282253838E1,3.571287692E-1
1.247925359E1,2.529811859E0,-1.360439301E1,6.107679605E-1
1.248925359E1,2.448455811E0,-1.386341572E1,6.185446382E-1
1.249925359E1,2.213361025E0,-1.347817135E1,2.703889608E-1
1.250925359E1,1.838884234E0,-1.279143143E1,-2.105683982E-1
1.251925359E1,1.398604870E0,-1.222014523E1,-4.911268353E-1
1.252925359E1,1.048056364E0,-1.170030499E1,-1.039681435E0
1.253925359E1,1.237687469E0,-1.101595688E1,-1.786242127E0
1.254925359E1,1.403390527E0,-1.009232807E1,-2.517249346E0
1.255925359E1,1.335793257E0,-9.330213547E0,-2.694318295E0
1.256925359E1,9.014959335E-1,-8.973084450E0,-2.425724030E0
1.257925359E1,1.710868180E-1,-8.816354752E0,-1.594218135E0
1.258925359E1,-7.926225066E-1,-8.767900467E0,-3.242274821E-1
1.259925359E1,-1.508076429E0,-8.723632812E0,9.134600163E-1
1.260925359E1,-1.598405480E0,-8.800801277E0,1.032503009E0
1.261925359E1,-1.284347534E0,-8.890532494E0,1.663011760E-1
1.262925359E1,-8.039883971E-1,-9.648459435E0,1.240678549E0
1.263925359E1,-7.130611539E-1,-1.063789082E1,1.019342422E0
1.264925359E1,4.331009090E-1,-1.086102200E1,1.124626622E-1
1.265925359E1,1.385444283E0,-1.142213917E1,4.145565331E-1
1.266925359E1,3.846462488E0,-1.166142082E1,2.256431818E0
1.267925359E1,3.643072367E0,-1.190489101E1,3.661616802E0
1.268925359E1,3.254238844E0,-1.102493000E1,3.014956474E0
1.269925359E1,3.478565931E0,-9.651450157E0,2.986242771E0
1.270925359E1,4.292125702E0,-8.565108299E0,3.886542082E0
1.271925359E1,3.578466177E0,-8.684749603E0,3.045464993E0
1.272925359E1,3.419941664E0,-8.554341316E0,2.801397085E0
1.273925359E1,3.093321562E0,-9.150752068E0,1.723430514E0
1.274925359E1,3.074777126E0,-1.004626560E1,1.847259045E0
1.275925359E1,1.386042476E0,-1.046381378E1,1.052842021E0
1.276925359E1,1.317248821E0,-1.082931709E1,-1.950150430E-1
1.277925359E1,1.129412293E0,-1.161775208E1,-1.168295622E0
1.278925359E1,-2.327020019E-1,-1.134078312E1,-5.443671346E-1
1.279925359E1,-3.978067636E-1,-1.070788097E1,8.045865893E-1
1.280925359E1,-7.663014531E-1,-1.037767220E1,7.716853023E-1
1.281925359E1,-1.057029366E0,-1.007677460E1,1.567298889E0
1.282925359E1,-1.564906001E0,-1.006361389E1,9.625129104E-1
1.283925359E1,-1.076770186E0,-1.015035343E1,1.102493048E0
1.284925359E1,-1.455434322E0,-1.005523872E1,3.738785386E-1
1.285925359E1,-1.389033556E0,-9.605986595E0,4.342973232E-1
1.286925359E1,-1.345962763E0,-9.385248184E0,4.169493318E-1
1.287925359E1,-1.126421213E0,-9.315856934E0,7.836493850E-2
1.288925359E1,-1.284945726E0,-9.275776863E0,-2.237289101E-1
1.289925359E1,-1.418943882E0,-9.183652878E0,-4.438686073E-1
1.290925359E1,-1.419542074E0,-9.138788223E0,-7.405785918E-1
1.291925359E1,-1.558923960E0,-9.094520569E0,-9.278169870E-1
1.292925359E1,-1.377667665E0,-8.930612564E0,-1.131805062E0
1.293925359E1,-9.948160052E-1,-8.752944946E0,-1.115055323E0
1.294925359E1,-4.163511395E-1,-8.776275635E0,-1.146162033E0
1.295925359E1,-1.435693540E-2,-8.772088051E0,-1.063609719E0
1.296925359E1,6.592226624E-1,-8.798408508E0,-1.281356573E0
1.297925359E1,1.122832060E0,-9.161520004E0,-1.353739381E0
1.298925359E1,1.506281853E0,-9.387641907E0,-1.089930773E0
1.299925359E1,1.946561217E0,-9.493523598E0,-1.007976532E0
1.300925359E1,2.414358139E0,-9.461818695E0,-1.350748420E0
1.301925359E1,2.920439959E0,-9.741181374E0,-1.795813441E0
1.302925359E1,3.273979664E0,-1.021256733E1,-2.137388945E0
1.303925359E1,3.379263878E0,-1.069531918E1,-2.259422779E0
1.304925359E1,2.767299414E0,-1.119362450E1,-2.164906263E0
1.305925359E1,1.721037745E0,-1.086700439E1,-1.797608018E0
1.306925359E1,1.204786181E0,-1.029990482E1,-1.456032634E0
1.307925359E1,8.799605370E-1,-1.021496010E1,-1.298704505E0
1.308925359E1,5.210371017E-1,-1.029153061E1,-1.344168067E0
1.309925359E1,-2.153540403E-1,-1.053081226E1,-1.458425403E0
1.310925359E1,-9.553344250E-1,-1.136590767E1,-1.155135155E0
1.311925359E1,-1.541576028E0,-1.237687492E1,-2.925225794E-1
1.312925359E1,-1.980060697E0,-1.305165100E1,3.720839322E-1
1.313925359E1,-2.687737942E0,-1.311984634E1,5.174478889E-1
1.314925359E1,-3.281756163E0,-1.229013538E1,1.561316848E-1
1.315925359E1,-3.168097258E0,-1.119123173E1,-3.631108403E-1
1.316925359E1,-2.256431818E0,-1.006720352E1,-8.554341197E-1
1.317925359E1,-1.348355532E0,-9.284749985E0,-1.119840980E0
1.318925359E1,-4.833501875E-1,-8.834300995E0,-1.084546804E0
1.319925359E1,1.190429255E-1,-8.847461700E0,-1.173679471E0
1.320925359E1,5.252245665E-1,-8.994620323E0,-1.378864050E0
1.321925359E1,8.458628058E-1,-9.052047729E0,-1.339382529E0
1.322925359E1,9.613165259E-1,-9.211769104E0,-1.043270707E0
1.323925359E1,1.191027522E0,-8.941379547E0,-6.191428304E-1
1.324925359E1,1.167697430E0,-8.551948547E0,-1.573280841E-1
1.325925359E1,9.864411354E-1,-8.314460754E0,1.166501045E-1
1.326925359E1,1.029511929E0,-8.093722343E0,4.606183618E-2
1.327925359E1,1.134197950E0,-7.896314621E0,-9.571290761E-2
1.328925359E1,1.272981644E0,-7.872386456E0,-8.075776696E-2
1.329925359E1,1.545763373E0,-8.327621460E0,3.589233849E-3
1.330925359E1,1.709671736E0,-8.842676163E0,5.419743061E-1
1.331925359E1,1.663609982E0,-1.003071213E1,1.467996716E0
1.332925359E1,1.330409408E0,-1.102552891E1,2.059023857E0
1.333925359E1,9.439685345E-1,-1.131446171E1,2.338385820E0
1.334925359E1,3.744767308E-1,-1.089332485E1,2.209771633E0
1.335925359E1,1.010967568E-1,-1.035553837E1,1.890928149E0
1.336925359E1,-9.631111473E-2,-9.733404160E0,1.118644595E0
1.337925359E1,-1.028913707E-1,-9.407979965E0,4.073780477E-1
1.338925359E1,2.500499785E-1,-9.179466248E0,-1.262213886E-1
1.339925359E1,4.606183469E-1,-9.083752632E0,-1.250249892E-1
1.340925359E1,6.855437160E-1,-8.965308189E0,1.399801224E-1
1.341925359E1,6.382854581E-1,-8.900702477E0,5.090730190E-1
1.342925359E1,1.070788130E-1,-9.181859016E0,1.938186288E-1
1.343925359E1,-4.199403822E-1,-9.661021233E0,-4.815555513E-1
1.344925359E1,-6.406782866E-1,-9.829116821E0,-1.192223907E0
1.345925359E1,-6.514459848E-1,-1.007318497E1,-2.002792597E0
1.346925359E1,-5.850451589E-1,-9.894321442E0,-2.279163599E0
1.347925359E1,-4.121637046E-1,-9.815957069E0,-1.765903115E0
1.348925359E1,-4.683950245E-1,-9.911071777E0,-1.101296663E0
1.349925359E1,-6.538388133E-1,-9.815358162E0,-3.445664644E-1
1.350925359E1,-6.867401004E-1,-9.720842361E0,-1.333998591E-1
1.351925359E1,-5.192425251E-1,-9.664610863E0,7.836493850E-2
1.352925359E1,-2.991028428E-1,-9.493523598E0,2.237289101E-1
1.353925359E1,-1.070788130E-1,-9.399007797E0,4.983053207E-1
1.354925359E1,-1.016949639E-1,-9.602396965E0,8.177471161E-1
1.355925359E1,-2.213360965E-1,-9.631709099E0,9.080761671E-1
1.356925359E1,-2.021935135E-1,-9.707681656E0,8.644071817E-1
1.357925359E1,-1.836491376E-1,-9.725627899E0,6.299105883E-1
1.358925359E1,-9.272187948E-2,-9.815957069E0,6.005984545E-1
1.359925359E1,5.563312769E-2,-9.892526627E0,5.533402562E-1
1.360925359E1,1.848455518E-1,-9.825528145E0,6.113662124E-1
1.361925359E1,2.662015259E-1,-9.864411354E0,7.118647099E-1
1.362925359E1,7.058826834E-2,-9.779465675E0,8.889335990E-1
1.363925359E1,9.451649338E-2,-9.664610863E0,8.949156404E-1
1.364925359E1,1.519442350E-1,-9.594022751E0,1.039083242E0
1.365925359E1,9.032905847E-2,-9.548559189E0,1.426720500E0
1.366925359E1,-5.324030295E-2,-9.690931320E0,1.248455167E0
1.367925359E1,-3.128615618E-1,-9.762118340E0,3.559323549E-1
1.368925359E1,-5.054838061E-1,-9.948160172E0,-5.365904570E-1
1.369925359E1,-3.876372576E-1,-1.051107121E1,-1.540379524E0
1.370925359E1,-1.447657645E-1,-1.129531956E1,-2.397010088E0
1.371925359E1,5.048855543E-1,-1.164526939E1,-2.976073265E0
1.372925359E1,1.546361685E0,-1.157109165E1,-3.253640652E0
1.373925359E1,2.389233351E0,-1.166860008E1,-2.772683144E0
1.374925359E1,2.787638426E0,-1.196650600E1,-1.838884234E0
1.375925359E1,2.895315409E0,-1.273938751E1,-6.849454641E-1
1.376925359E1,2.748156786E0,-1.339442253E1,-4.307080805E-2
1.377925359E1,2.930609465E0,-1.351585865E1,2.440679073E-1
1.378925359E1,2.992224693E0,-1.303190994E1,2.285145670E-1
1.379925359E1,2.657827854E0,-1.276451206E1,2.715853751E-1
1.380925359E1,2.350948334E0,-1.244267750E1,-1.914258115E-2
1.381925359E1,2.215753794E0,-1.174516964E1,-5.515456200E-1
1.382925359E1,2.061416626E0,-1.099023438E1,-1.160519004E0
1.383925359E1,1.625324726E0,-1.042851925E1,-1.512862086E0
1.384925359E1,9.738788009E-1,-9.926624298E0,-2.216351986E0
1.385925359E1,3.798605800E-1,-9.469595909E0,-2.670390129E0
1.386925359E1,-2.075773627E-1,-9.213563919E0,-2.335993052E0
1.387925359E1,-6.747759581E-1,-9.244669914E0,-1.284347534E0
1.388925359E1,-4.815555513E-1,-9.437292099E0,-3.176472187E-1
1.389925359E1,-9.966106415E-1,-1.013121128E1,3.224328458E-1
1.390925359E1,-6.340979785E-2,-9.769296646E0,7.782655358E-1
1.391925359E1,9.134600163E-1,-8.790632248E0,1.990230203E0
1.392925359E1,-1.423729509E-1,-9.373284340E0,2.480758905E0
1.393925359E1,1.721037745E0,-9.638887405E0,1.542772412E0
1.394925359E1,1.530808330E0,-9.957731247E0,1.975873351E0
1.395925359E1,6.993024349E-1,-1.057627583E1,2.102692842E0
1.396925359E1,3.834498227E-1,-1.047936630E1,1.834098577E0
1.397925359E1,6.885347366E-1,-1.036271667E1,1.615753531E0
1.398925359E1,1.716850281E0,-1.020837975E1,1.529611826E0
1.399925359E1,2.418545485E0,-1.025085258E1,7.848458290E-1
1.400925359E1,3.383451223E0,-1.007976532E1,3.972085714E-1
1.401925359E1,3.650849104E0,-1.004088211E1,2.644068897E-1
1.402925359E1,1.961516380E0,-1.015992451E1,-7.962117195E-1
1.403925359E1,1.271785259E0,-9.641280174E0,-1.169492126E0
1.404925359E1,9.499505758E-1,-9.644271851E0,-2.200200319E0
1.405925359E1,9.086744189E-1,-9.613762856E0,-1.012762189E0
1.406925359E1,6.849454641E-1,-9.254241943E0,-3.260220885E-1
1.407925359E1,4.743770957E-1,-8.882157326E0,-2.051845491E-1
1.408925359E1,4.175475538E-1,-8.472386360E0,9.930214286E-2
1.409925359E1,-4.187439755E-2,-8.462217331E0,-1.088734269E-1
1.410925359E1,-4.342973232E-1,-8.327621460E0,-2.578266263E-1
1.411925359E1,-6.783652306E-1,-8.134400368E0,-5.449653864E-1
1.412925359E1,-8.847461939E-1,-8.056035995E0,-8.129615188E-1
1.413925359E1,-1.067198873E0,-7.825128078E0,-1.032503009E0
1.414925359E1,-1.368694544E0,-7.709076405E0,-1.258026481E0
1.415925359E1,-1.469193101E0,-7.684549809E0,-1.411765337E0
1.416925359E1,-1.512263894E0,-7.709076405E0,-1.292124271E0
1.417925359E1,-1.401595831E0,-7.724031448E0,-1.147956610E0
1.418925359E1,-1.392024517E0,-7.902296543E0,-9.912267923E-1
1.419925359E1,-1.338784218E0,-8.013563156E0,-8.195417523E-1
1.420925359E1,-1.009771109E0,-8.035098076E0,-1.119840980E0
1.421925359E1,-6.562315822E-1,-8.199007034E0,-1.617548108E0
1.422925359E1,-5.503492057E-2,-8.309076309E0,-2.386840582E0
1.423925359E1,6.041877270E-1,-8.410771370E0,-2.777468920E0
1.424925359E1,1.316650629E0,-8.917451859E0,-2.830709219E0
1.425925359E1,2.067398787E0,-9.558130264E0,-2.870190859E0
1.426925359E1,3.220739365E0,-1.002233791E1,-2.687139750E0
1.427925359E1,4.130012035E0,-1.029212856E1,-2.287538528E0
1.428925359E1,4.776073933E0,-1.077188969E1,-2.024926186E0
1.429925359E1,4.771288395E0,-1.136471081E1,-2.090728760E0
1.430925359E1,4.474578381E0,-1.157946682E1,-2.232503414E0
1.431925359E1,4.058825493E0,-1.157647610E1,-2.061416626E0
1.432925359E1,3.714857101E0,-1.133779144E1,-1.941775560E0
1.433925359E1,3.355933666E0,-1.102193928E1,-2.056032896E0
1.434925359E1,3.144767046E0,-1.077069283E1,-2.380858421E0
1.435925359E1,3.086741209E0,-1.057208824E1,-2.796013355E0
1.436925359E1,2.857030153E0,-1.082931709E1,-2.976073265E0
1.437925359E1,2.652443886E0,-1.169312572E1,-2.718844652E0
1.438925359E1,2.400599241E0,-1.262752342E1,-1.763510346E0
1.439925359E1,1.249651670E0,-1.328794193E1,-1.197607756E0
1.440925359E1,-1.369891018E-1,-1.346082401E1,-1.217946768E0
1.441925359E1,-1.452443361E0,-1.305882931E1,-1.431506157E0
1.442925359E1,-1.844866276E0,-1.221775246E1,-1.250249863E0
1.443925359E1,-1.940579176E0,-1.091306591E1,-9.792626500E-1
1.444925359E1,-1.668395638E0,-9.698110580E0,-8.985049129E-1
1.445925359E1,-1.429113269E0,-9.104690552E0,-8.315058947E-1
1.446925359E1,-1.171286702E0,-8.721838951E0,-7.752745152E-1
1.447925359E1,-1.013360381E0,-8.511270523E0,-7.734799385E-1
1.448925359E1,-8.033902049E-1,-8.285746574E0,-8.428717852E-1
1.449925359E1,-6.358926296E-1,-8.209176064E0,-8.512466550E-1
1.450925359E1,-5.790630579E-1,-8.050651550E0,-8.979067206E-1
1.451925359E1,-6.358926296E-1,-8.079963684E0,-8.410771489E-1
1.452925359E1,-8.315058947E-1,-8.106883049E0,-3.296113312E-1
1.453925359E1,-1.016949654E0,-8.357531548E0,-8.315058798E-2
1.454925359E1,-1.049252748E0,-8.639883995E0,6.143572330E-1
1.455925359E1,-1.063011408E0,-9.354740143E0,9.541380405E-1
1.456925359E1,-9.667003751E-1,-1.018385315E1,1.159920812E0
1.457925359E1,-6.125625968E-1,-1.058166027E1,1.216750264E0
1.458925359E1,-1.776670814E-1,-1.064088249E1,8.727820516E-1
1.459925359E1,3.864408433E-1,-1.033041382E1,1.006181955E0
1.460925359E1,5.916253924E-1,-9.668798447E0,8.392825127E-1
1.461925359E1,5.826523304E-1,-9.364909172E0,1.257428288E0
1.462925359E1,6.927221417E-1,-9.341579437E0,1.368096352E0
1.463925359E1,8.835497499E-1,-9.130413055E0,1.313061476E0
1.464925359E1,1.074377418E0,-8.937192917E0,1.051645517E0
1.465925359E1,1.265205026E0,-8.878568649E0,8.512466550E-1
1.466925359E1,1.179063320E0,-9.097511292E0,6.580262184E-1
1.467925359E1,1.293918848E0,-8.943773270E0,6.167500615E-1
1.468925359E1,1.298106313E0,-8.919246674E0,4.827519655E-1
1.469925359E1,1.178465128E0,-9.180662155E0,1.932204217E-1
1.470925359E1,1.149153113E0,-9.388239861E0,-2.679961324E-1
1.471925359E1,1.090528965E0,-9.418149948E0,-9.002995491E-1
1.472925359E1,5.742774606E-1,-9.522835732E0,-1.070788145E0
1.473925359E1,-1.764706671E-1,-9.643673897E0,-9.930213690E-1
1.474925359E1,-4.540380836E-1,-9.414560318E0,-9.254241586E-1
1.475925359E1,-4.301098585E-1,-9.262018204E0,-8.189435601E-1
1.476925359E1,-4.295116663E-1,-9.340383530E0,-5.467599630E-1
1.477925359E1,-4.671986103E-1,-9.638887405E0,-2.470589429E-1
1.478925359E1,-3.044866920E-1,-9.486345291E0,-8.255238086E-2
1.479925359E1,-1.704886109E-1,-9.348159790E0,-3.828516230E-2
1.480925359E1,-1.459621787E-1,-9.324830055E0,1.010967568E-1
1.481925359E1,-1.651047617E-1,-9.248857498E0,2.213360965E-1
1.482925359E1,-1.555334777E-1,-9.477970123E0,7.118647546E-2
1.483925359E1,-1.196411345E-2,-9.673583984E0,3.230310604E-2
1.484925359E1,1.597209126E-1,-9.873982430E0,-2.093719877E-2
1.485925359E1,5.473581553E-1,-1.006540871E1,2.213360928E-2
1.486925359E1,8.392825127E-1,-1.019043350E1,1.710868180E-1
1.487925359E1,1.007378340E0,-1.029751205E1,4.199403822E-1
1.488925359E1,1.045663476E0,-1.045125103E1,5.294120312E-1
1.489925359E1,9.834501147E-1,-1.069472122E1,4.462614357E-1
1.490925359E1,8.590233326E-1,-1.089930725E1,2.338984162E-1
1.491925359E1,7.339983582E-1,-1.106501007E1,-6.460621208E-2
1.492925359E1,5.808576941E-1,-1.116491032E1,-2.285145670E-1
1.493925359E1,5.186443329E-1,-1.123549843E1,-4.307080805E-1
1.494925359E1,6.185446382E-1,-1.124327564E1,-6.837490797E-1
1.495925359E1,8.907282352E-1,-1.103091240E1,-9.260223508E-1
1.496925359E1,1.301097274E0,-1.073659515E1,-1.233500123E0
1.497925359E1,1.855633974E0,-1.057328510E1,-1.264008522E0
1.498925359E1,2.267199516E0,-1.100758266E1,-1.360917926E0
1.499925359E1,2.429911375E0,-1.160219860E1,-1.220339537E0
1.500925359E1,2.440679073E0,-1.190608692E1,-8.249256015E-1
1.501925359E1,2.111067772E0,-1.205204964E1,-4.390829504E-1
1.502925359E1,1.556531072E0,-1.209153080E1,-3.266202807E-1
1.503925359E1,7.639086246E-1,-1.192762280E1,1.310070455E-1
1.504925359E1,5.724828243E-1,-1.180499077E1,3.607180119E-1
1.505925359E1,8.787640929E-1,-1.143171024E1,3.882354796E-1
1.506925359E1,1.188634634E0,-1.082572746E1,1.974078640E-2
1.507925359E1,1.158724308E0,-1.013420200E1,-3.541377485E-1
1.508925359E1,8.841479421E-1,-9.329017639E0,-1.326820135E0
1.509925359E1,1.794617027E-1,-8.739186287E0,-2.374278307E0
1.510925359E1,-1.217946768E0,-8.516056061E0,-3.077768087E0
1.511925359E1,-2.193620205E0,-8.928219795E0,-3.102892876E0
1.512925359E1,-3.674179077E0,-9.920044899E0,-2.315654039E0
1.513925359E1,-5.004588604E0,-1.138205910E1,-6.634100676E-1
1.514925359E1,-6.235097408E0,-1.253659630E1,8.566305041E-1
1.515925359E1,-6.510870457E0,-1.267119217E1,1.697707653E0
1.516925359E1,-4.496711731E0,-1.218185997E1,2.580060959E0
1.517925359E1,-2.231905222E0,-1.108056355E1,2.035693884E0
1.518925359E1,-1.932204217E-1,-1.137607670E1,2.855235577E0
1.519925359E1,4.032504559E0,-1.092802143E1,2.142174482E0
1.520925359E1,6.847062111E0,-9.905089378E0,1.216152072E0
1.521925359E1,7.447660446E0,-9.487542152E0,2.919243574E-1
1.522925359E1,5.873183250E0,-1.063669491E1,-3.590430260E0
1.523925359E1,3.419941664E0,-1.063729286E1,-3.815355778E0
1.524925359E1,2.827718258E0,-1.018744278E1,-3.105883837E0
1.525925359E1,4.468596280E-1,-9.778867722E0,-2.973680258E0
1.526925359E1,1.507478237E0,-8.877969742E0,-2.992822886E0
1.527925359E1,1.003789067E0,-9.409176826E0,-1.551745534E0
1.528925359E1,1.034895778E-1,-8.234899521E0,-1.902294040E0
1.529925359E1,-3.122633696E-1,-7.429714203E0,-1.386640668E0
1.530925359E1,-2.835494876E-1,-7.161718369E0,-1.384846091E0
1.531925359E1,-5.790630579E-1,-7.112067223E0,-9.732806087E-1
1.532925359E1,-1.066600680E0,-6.780661106E0,-5.186443329E-1
1.533925359E1,-1.214357495E0,-6.256632805E0,-1.471585929E-1
1.534925359E1,-1.362712502E0,-5.668596745E0,-7.178468257E-2
1.535925359E1,-1.544566989E0,-5.467001438E0,-1.429711580E-1
1.536925359E1,-1.478166223E0,-5.499304771E0,-3.445664644E-1
1.537925359E1,-1.415952802E0,-5.574080467E0,-6.317051649E-1
1.538925359E1,-1.139581800E0,-5.628517151E0,-9.900303483E-1
1.539925359E1,-8.530412912E-1,-5.761318684E0,-1.191027522E0
1.540925359E1,-5.377869010E-1,-6.084948063E0,-1.469791293E0
1.541925359E1,-2.033899277E-1,-6.498308182E0,-1.892124534E0
1.542925359E1,2.572284266E-2,-7.031309128E0,-2.349751949E0
1.543925359E1,4.881358147E-1,-7.963313580E0,-3.235096216E0
1.544925359E1,1.295115232E0,-9.113064766E0,-4.388436794E0
1.545925359E1,2.231307030E0,-1.028016472E1,-5.158327579E0
1.546925359E1,3.202194929E0,-1.134078312E1,-5.324030399E0
1.547925359E1,4.767100811E0,-1.288774300E1,-4.930410862E0
1.548925359E1,6.193821430E0,-1.363729477E1,-4.255036831E0
1.549925359E1,6.323632240E0,-1.377308750E1,-4.006183147E0
1.550925359E1,5.218147755E0,-1.322094345E1,-4.438087940E0
1.551925359E1,4.135993958E0,-1.233918858E1,-4.776073933E0
1.552925359E1,3.002394199E0,-1.116670513E1,-4.840082169E0
1.553925359E1,1.954337835E0,-1.044407272E1,-4.969294548E0
1.554925359E1,8.835497499E-1,-1.040159988E1,-5.044668198E0
1.555925359E1,2.673979402E-1,-1.135693455E1,-4.698905468E0
1.556925359E1,-4.067798331E-2,-1.297747326E1,-3.474976778E0
1.557925359E1,-5.916253924E-1,-1.417567921E1,-1.808375716E0
1.558925359E1,-1.436291814E0,-1.443589878E1,-8.512466550E-1
1.559925359E1,-2.238485575E0,-1.414397430E1,-2.153540403E-1
1.560925359E1,-2.506481647E0,-1.298764324E1,1.022931710E-1
1.561925359E1,-1.841875196E0,-1.170090294E1,2.757728100E-1
1.562925359E1,-8.775677085E-1,-9.870991707E0,1.184447184E-1
1.563925359E1,-4.336991012E-1,-8.529814720E0,-6.281159073E-2
1.564925359E1,-4.725824594E-1,-7.887341499E0,-2.404786795E-1
1.565925359E1,-3.631108403E-1,-7.335197926E0,-4.426721931E-1
1.566925359E1,-4.821537733E-1,-7.183851719E0,-2.362912297E-1
1.567925359E1,-7.214360237E-1,-7.657032490E0,-3.553341627E-1
1.568925359E1,-6.448656917E-1,-7.843672752E0,-3.128615618E-1
1.569925359E1,-3.631108403E-1,-7.855038643E0,-7.190431952E-1
1.570925359E1,4.187439568E-3,-7.809575081E0,-1.114457130E0
1.571925359E1,3.918247223E-1,-8.001000404E0,-9.996016622E-1
1.572925359E1,5.700899959E-1,-8.469993591E0,-2.548356056E-1
1.573925359E1,4.618147612E-1,-9.159127235E0,4.301098585E-1
1.574925359E1,1.710868180E-1,-9.742377281E0,1.104885817E0
1.575925359E1,-3.960121572E-1,-1.050329494E1,1.749153376E0
1.576925359E1,-1.093519926E0,-1.077906799E1,2.146960020E0
1.577925359E1,-1.336989641E0,-1.057029438E1,2.367697954E0
1.578925359E1,-1.011565804E0,-1.011685371E1,2.630310297E0
1.579925359E1,-6.532405615E-1,-9.517452240E0,2.535195589E0
1.580925359E1,-2.009970993E-1,-9.008976936E0,1.649253011E0
1.581925359E1,1.848455518E-1,-8.803792953E0,9.625129104E-1
1.582925359E1,6.568298340E-1,-9.079565048E0,-4.187439568E-3
1.583925359E1,1.435095429E0,-8.989236832E0,-5.563312769E-1
1.584925359E1,1.607378602E0,-8.930612564E0,-7.328019142E-1
1.585925359E1,1.329213023E0,-8.967103004E0,-9.876375198E-1
1.586925359E1,1.228116274E0,-8.754739761E0,-1.331605792E0
1.587925359E1,1.094118118E0,-8.840283394E0,-1.418943882E0
1.588925359E1,1.103689432E0,-9.169296265E0,-1.626521230E0
1.589925359E1,1.002592683E0,-9.171091080E0,-2.100898266E0
1.590925359E1,6.825526357E-1,-9.259027481E0,-1.829911113E0
1.591925359E1,1.710868180E-1,-9.537791252E0,-1.733001828E0
1.592925359E1,-1.585244983E-1,-9.714859962E0,-1.783251047E0
1.593925359E1,-3.780659735E-1,-9.787840843E0,-1.640878081E0
1.594925359E1,-3.726821244E-1,-9.694520950E0,-1.276570916E0
1.595925359E1,-3.200400174E-1,-9.653244972E0,-9.984052777E-1
1.596925359E1,-1.525424421E-1,-9.663414001E0,-8.350951076E-1
1.597925359E1,-2.273181453E-2,-9.649655342E0,-7.339983582E-1
1.598925359E1,1.208375469E-1,-9.836894035E0,-5.958128572E-1
1.599925359E1,2.644068897E-1,-9.933204651E0,-5.288137794E-1
1.600925359E1,4.462614357E-1,-9.904491425E0,-4.701896608E-1
1.601925359E1,6.179464459E-1,-9.794421196E0,-4.785645306E-1
1.602925359E1,7.806583643E-1,-9.731609344E0,-5.730810165E-1
1.603925359E1,9.290133715E-1,-9.674181938E0,-4.863412082E-1
1.604925359E1,1.005583763E0,-9.731609344E0,-5.389832854E-1
1.605925359E1,1.024726272E0,-9.808777809E0,-4.336991012E-1
1.606925359E1,9.152546525E-1,-9.919445992E0,-3.056831062E-1
1.607925359E1,8.530412912E-1,-1.000139999E1,-2.632105052E-1
1.608925359E1,7.334001660E-1,-1.006839943E1,-2.500499785E-1
1.609925359E1,5.946164131E-1,-1.009232807E1,-2.697907388E-1
1.610925359E1,4.325026870E-1,-1.018445110E1,-8.913264424E-2
1.611925359E1,3.756731451E-1,-1.033340454E1,-8.973085321E-3
1.612925359E1,4.761717021E-1,-1.052004433E1,4.785645287E-3
1.613925359E1,7.579265833E-1,-1.069711399E1,4.785645287E-3
1.614925359E1,1.063609719E0,-1.052303600E1,-1.794617027E-1
1.615925359E1,1.623530149E0,-1.079521942E1,-2.273181528E-1
1.616925359E1,1.728216171E0,-1.110987568E1,-4.348955154E-1
1.617925359E1,1.737787485E0,-1.166381359E1,-6.538388133E-1
1.618925359E1,1.818545222E0,-1.216331577E1,-1.030110121E0
1.619925359E1,1.622333765E0,-1.219143105E1,-1.194018483E0
1.620925359E1,1.105484009E0,-1.221535969E1,-1.281954765E0
1.621925359E1,7.668996453E-1,-1.218365479E1,-1.019940615E0
1.622925359E1,6.191428304E-1,-1.224885941E1,-5.946164131E-1
1.623925359E1,6.957131624E-1,-1.206341553E1,-3.487538993E-1
1.624925359E1,1.030110121E0,-1.130608654E1,-4.815555513E-1
1.625925359E1,1.426122308E0,-1.064327526E1,-8.781659007E-1
1.626925359E1,1.615155339E0,-9.554540634E0,-1.914258122E0
1.627925359E1,1.578664780E0,-9.046664238E0,-3.510869026E0
1.628925359E1,3.912265003E-1,-8.797212601E0,-4.500301361E0
1.629925359E1,-1.710868239E0,-9.455837250E0,-3.578466177E0
1.630925359E1,-3.017947674E0,-1.018505001E1,-2.008176327E0
1.631925359E1,-3.909872293E0,-1.119362450E1,-8.015955687E-1
1.632925359E1,-4.127619267E0,-1.209452248E1,1.543370634E-1
1.633925359E1,-3.704089403E0,-1.250249863E1,1.910668850E0
1.634925359E1,-2.894717216E0,-1.219083309E1,2.667398930E0
1.635925359E1,-4.432703853E-1,-1.113679504E1,2.090130568E0
1.636925359E1,1.738385677E0,-1.089033413E1,2.727219582E0
1.637925359E1,4.027718544E0,-1.053260708E1,2.412563324E0
1.638925359E1,5.078765869E0,-9.332606316E0,1.983649969E0
1.639925359E1,5.019543648E0,-9.040083885E0,1.171286702E0
1.640925359E1,4.081557274E0,-9.272786140E0,-2.267199516E0
1.641925359E1,2.545963287E0,-9.470791817E0,-2.930011272E0
1.642925359E1,1.567298889E0,-9.359525681E0,-1.702493310E0
1.643925359E1,9.888339639E-1,-9.355937004E0,-1.613958836E0
1.644925359E1,5.389832854E-1,-8.956933022E0,-2.015354872E0
1.645925359E1,3.996013701E-1,-9.189635277E0,-2.237887383E0
1.646925359E1,2.751746178E-1,-9.025128365E0,-2.529213428E0
1.647925359E1,6.041877344E-2,-8.363512993E0,-2.070987940E0
1.648925359E1,1.244267747E-1,-8.036892891E0,-6.849454641E-1
1.649925359E1,-1.098903775E0,-7.801798344E0,-1.896311939E-1
1.650925359E1,-1.739582062E0,-7.443472862E0,-1.806581169E-1
1.651925359E1,-1.893320918E0,-7.232306480E0,-2.997010350E-1
1.652925359E1,-2.108076811E0,-7.226922512E0,-3.768695593E-1
1.653925359E1,-2.409572363E0,-7.051050186E0,-3.098705411E-1
1.654925359E1,-2.600998163E0,-6.719644070E0,-4.426721931E-1
1.655925359E1,-2.405385017E0,-6.593422890E0,-6.993024349E-1
1.656925359E1,-1.946561217E0,-6.601797581E0,-8.225327730E-1
1.657925359E1,-1.272981644E0,-6.467201233E0,-8.763712645E-1
1.658925359E1,-8.374879360E-1,-6.232106686E0,-8.925228715E-1
1.659925359E1,-5.030909777E-1,-6.207580090E0,-9.529415965E-1
1.660925359E1,-1.256231815E-1,-6.320641041E0,-1.153340459E0
1.661925359E1,1.704886109E-1,-6.716054916E0,-1.399203062E0
1.662925359E1,7.244270444E-1,-7.592426300E0,-2.048854351E0
1.663925359E1,1.163509965E0,-9.093324661E0,-3.009572744E0
1.664925359E1,1.530808330E0,-1.110509014E1,-4.223331928E0
1.665925359E1,1.898704767E0,-1.283330631E1,-4.883750916E0
1.666925359E1,3.017349243E0,-1.471047497E1,-5.274379253E0
1.667925359E1,4.802394867E0,-1.539721584E1,-4.707280159E0
1.668925359E1,6.686742783E0,-1.435514164E1,-4.219144344E0
1.669925359E1,7.409375191E0,-1.342493153E1,-3.635894060E0
1.670925359E1,6.089135647E0,-1.203829098E1,-3.637090445E0
1.671925359E1,4.391427994E0,-1.030528927E1,-3.158525944E0
1.672925359E1,3.589233875E0,-8.800203323E0,-2.179861546E0
1.673925359E1,2.297708035E0,-8.184051514E0,-2.070389748E0
1.674925359E1,1.220937729E0,-8.616554260E0,-2.729014158E0
1.675925359E1,5.898307562E-1,-9.666405678E0,-3.264408350E0
1.676925359E1,2.237289101E-1,-1.167637634E1,-2.579462767E0
1.677925359E1,-8.542376757E-1,-1.308275795E1,-1.290329576E0
1.678925359E1,-2.129014015E0,-1.429053497E1,-4.983053207E-1
1.679925359E1,-3.700500250E0,-1.501974773E1,3.529413342E-1
1.680925359E1,-3.905086517E0,-1.455554008E1,1.130608678E0
1.681925359E1,-3.518047571E0,-1.257667542E1,1.508674622E0
1.682925359E1,-2.840878725E0,-1.026700401E1,1.176670551E0
1.683925359E1,-2.995215654E0,-8.961120605E0,5.425725579E-1
1.684925359E1,-3.293720484E0,-8.452646255E0,-4.468596280E-1
1.685925359E1,-2.726023197E0,-8.266604424E0,-1.066002488E0
1.686925359E1,-1.884347796E0,-8.173882484E0,-1.200598717E0
1.687925359E1,-9.619147182E-1,-8.153543472E0,-1.307079315E0
1.688925359E1,2.237289101E-1,-8.199604988E0,-1.432104349E0
1.689925359E1,1.265205026E0,-8.062017441E0,-1.858624935E0
1.690925359E1,2.020738840E0,-7.893323898E0,-1.993221283E0
1.691925359E1,2.437688112E0,-8.007580757E0,-1.274178028E0
1.692925359E1,2.373081923E0,-8.803792953E0,-1.974078715E-1
1.693925359E1,1.514058471E0,-9.889535904E0,2.907279432E-1
1.694925359E1,5.682953596E-1,-1.058345413E1,9.864411354E-1
1.695925359E1,-2.584248483E-1,-1.088734341E1,1.249651670E0
1.696925359E1,-6.831508875E-1,-1.055952644E1,1.546959877E0
1.697925359E1,-1.161117196E0,-1.035613632E1,1.871785522E0
1.698925359E1,-1.289731383E0,-9.965508461E0,2.175673962E0
1.699925359E1,-1.262213945E0,-9.331410408E0,1.762912035E0
1.700925359E1,-1.114457130E0,-8.851051331E0,1.474576950E0
1.701925359E1,-9.469595551E-1,-8.927620888E0,1.522433400E0
1.702925359E1,-3.463610709E-1,-8.624929428E0,6.939185858E-1
1.703925359E1,3.984049559E-1,-8.328817368E0,8.075776696E-2
1.704925359E1,6.897311211E-1,-8.407182693E0,-3.786641955E-1
1.705925359E1,7.417750359E-1,-8.534002304E0,-7.381857634E-1
1.706925359E1,7.986045480E-1,-8.237292290E0,-6.783652306E-1
1.707925359E1,6.795616150E-1,-8.620741844E0,-6.669993401E-1
1.708925359E1,4.492524564E-1,-9.043074608E0,-1.269392371E0
1.709925359E1,-7.657032460E-2,-9.460023880E0,-1.216152072E0
1.710925359E1,-6.221339107E-1,-9.970293999E0,-1.537986755E0
1.711925359E1,-9.038887620E-1,-9.975079536E0,-1.591825247E0
1.712925359E1,-1.018744230E0,-9.641879082E0,-1.345962763E0
1.713925359E1,-1.036690354E0,-9.501898766E0,-7.609176040E-1
1.714925359E1,-9.505487680E-1,-9.597611427E0,-7.130611539E-1
1.715925359E1,-7.501499057E-1,-9.315258980E0,-7.154539824E-1
1.716925359E1,-6.628118753E-1,-9.170493126E0,-1.776670814E-1
1.717925359E1,-7.052844763E-1,-9.033503532E0,1.579262912E-1
1.718925359E1,-7.914260626E-1,-8.985647202E0,1.244267747E-1
1.719925359E1,-9.445667267E-1,-9.081359863E0,1.328016520E-1
1.720925359E1,-9.631111026E-1,-9.283554077E0,2.656033039E-1
1.721925359E1,-7.716853023E-1,-9.532406807E0,3.272185028E-1
1.722925359E1,-5.132604837E-1,-9.652048111E0,3.894318938E-1
1.723925359E1,-1.310070455E-1,-9.829116821E0,3.996013701E-1
1.724925359E1,1.896311939E-1,-1.027298546E1,2.542374134E-1
1.725925359E1,5.814558864E-1,-1.045424175E1,2.452643216E-1
1.726925359E1,8.787640929E-1,-1.069472122E1,4.504488707E-1
1.727925359E1,1.208375454E0,-1.075214863E1,4.372883439E-1
1.728925359E1,1.561915040E0,-1.061216831E1,3.098705411E-1
1.729925359E1,1.767099500E0,-1.037228775E1,2.548356056E-1
1.730925359E1,1.843669891E0,-1.028554821E1,1.740778536E-1
1.731925359E1,1.814955950E0,-1.033340454E1,1.405783296E-1
1.732925359E1,1.676172256E0,-1.050508976E1,7.178468257E-2
1.733925359E1,1.432104349E0,-1.069591713E1,-6.939185411E-2
1.734925359E1,1.116251707E0,-1.064267731E1,-2.374876440E-1
1.735925359E1,8.003991842E-1,-1.063250732E1,-3.248256743E-1
1.736925359E1,4.612165689E-1,-1.084786129E1,-3.948157430E-1
1.737925359E1,1.507478207E-1,-1.155135155E1,-4.193421602E-1
1.738925359E1,9.332008660E-2,-1.220160103E1,-5.581258535E-1
1.739925359E1,7.417750359E-2,-1.228714466E1,-6.544370055E-1
1.740925359E1,-4.067798331E-2,-1.228654575E1,-7.316055298E-1
1.741925359E1,-4.127619043E-2,-1.215194988E1,-8.500502706E-1
1.742925359E1,2.506481707E-1,-1.199462128E1,-7.429714203E-1
1.743925359E1,5.665007830E-1,-1.185583782E1,-6.209374666E-1
1.744925359E1,7.244270444E-1,-1.182712460E1,-6.299105883E-1
1.745925359E1,1.049252748E0,-1.139581776E1,-7.070791125E-1
1.746925359E1,1.359123230E0,-1.045543861E1,-9.732806087E-1
1.747925359E1,1.290927768E0,-9.324830055E0,-1.224527001E0
1.748925359E1,5.198407173E-1,-8.842078209E0,-2.005185366E0
1.749925359E1,-6.346961856E-1,-8.200801849E0,-2.838485956E0
1.750925359E1,-1.992024899E0,-8.498707771E0,-2.816950560E0
1.751925359E1,-3.008376360E0,-8.962317467E0,-1.612164259E0
1.752925359E1,-3.397808075E0,-9.932606697E0,-3.032902777E-1
1.753925359E1,-3.949951887E0,-1.110449123E1,1.027717352E0
1.754925359E1,-4.199403763E0,-1.216570854E1,6.281159073E-2
1.755925359E1,-1.879562140E0,-1.205204964E1,5.126622319E-1
1.756925359E1,-6.346961856E-1,-1.257966709E1,1.601396561E0
1.757925359E1,1.455434322E0,-1.234995556E1,1.898106575E0
1.758925359E1,4.086941242E0,-1.220638657E1,3.029313564E0
1.759925359E1,6.160920143E0,-1.046082211E1,2.718246460E0
1.760925359E1,6.775875568E0,-9.324232101E0,1.707877159E0
1.761925359E1,5.647659779E0,-9.601201057E0,-8.362914920E-1
1.762925359E1,4.183252335E0,-9.495916367E0,-1.765304923E0
1.763925359E1,2.843869686E0,-9.300901413E0,-1.802991867E0
1.764925359E1,1.218544960E0,-9.101100922E0,-1.750349760E0
1.765925359E1,1.587637782E0,-8.426922798E0,-8.584251404E-1
1.766925359E1,1.423729420E0,-8.851649284E0,-1.829312921E0
1.767925359E1,1.347757339E0,-8.778668404E0,-1.287936807E0
1.768925359E1,5.222335458E-1,-8.532207489E0,-2.410768867E-1
1.769925359E1,-1.938186288E-1,-8.425726891E0,1.878365725E-1
1.770925359E1,-9.290133715E-1,-8.225327492E0,9.762716293E-1
1.771925359E1,-1.345364571E0,-7.762316704E0,1.116850019E0
1.772925359E1,-1.761117458E0,-7.490133286E0,1.159920812E0
1.773925359E1,-2.034497499E0,-7.134799004E0,9.170492887E-1
1.774925359E1,-2.240878344E0,-6.969694138E0,5.389832854E-1
1.775925359E1,-2.361117840E0,-6.795018196E0,1.034895778E-1
1.776925359E1,-2.386242390E0,-6.828517437E0,-6.532405615E-1
1.777925359E1,-2.161915302E0,-6.735197544E0,-9.774680734E-1
1.778925359E1,-1.847259045E0,-6.766902447E0,-1.253839016E0
1.779925359E1,-1.454836130E0,-6.808776855E0,-1.353141189E0
1.780925359E1,-1.153938770E0,-6.846463680E0,-1.376471281E0
1.781925359E1,-1.177866936E0,-7.222734928E0,-1.704287887E0
1.782925359E1,-9.337990284E-1,-7.749754429E0,-1.596610904E0
1.783925359E1,-1.932204217E-1,-8.688339233E0,-2.117049932E0
1.784925359E1,4.666004181E-1,-9.522835732E0,-2.526820660E0
1.785925359E1,1.116850019E0,-1.118584728E1,-2.822334290E0
1.786925359E1,1.666002750E0,-1.213639641E1,-3.826721668E0
1.787925359E1,2.219941139E0,-1.266999626E1,-4.125226021E0
1.788925359E1,3.143570662E0,-1.279980659E1,-3.949951887E0
1.789925359E1,4.876572609E0,-1.253360462E1,-2.677568436E0
1.790925359E1,5.867201328E0,-1.187378407E1,-1.673181176E0
1.791925359E1,5.569892883E0,-1.138325596E1,-2.082952023E0
1.792925359E1,4.804189682E0,-1.096092224E1,-2.389831543E0
1.793925359E1,4.651647091E0,-1.006361389E1,-2.025524378E0
1.794925359E1,4.149752617E0,-9.257830620E0,-1.582253933E0
1.795925359E1,3.337389469E0,-8.986844063E0,-1.406381488E0
1.796925359E1,2.577069998E0,-8.801400185E0,-1.350748420E0
1.797925359E1,1.739582062E0,-8.972486496E0,-1.594218135E0
1.798925359E1,7.597211599E-1,-9.824331284E0,-1.746760488E0
1.799925359E1,1.262213886E-1,-1.210289669E1,-9.738788009E-1
1.800925359E1,-5.599204898E-1,-1.390588856E1,1.950150430E-1
1.801925359E1,-1.543370605E0,-1.458903980E1,6.747759581E-1
1.802925359E1,-2.499901533E0,-1.434138298E1,7.016952634E-1
1.803925359E1,-2.964108944E0,-1.378146172E1,6.221339107E-1
1.804925359E1,-2.865405083E0,-1.206999588E1,2.404786795E-1
1.805925359E1,-2.546561480E0,-1.054397297E1,-3.565305769E-1
1.806925359E1,-2.557329178E0,-9.755537987E0,-9.451649189E-1
1.807925359E1,-1.922633052E0,-9.415757179E0,-1.596610904E0
1.808925359E1,-9.672985673E-1,-9.502496719E0,-2.120639086E0
1.809925359E1,-1.615155302E-2,-9.537791252E0,-2.542972326E0
1.810925359E1,5.282155871E-1,-9.321240425E0,-2.659622431E0
1.811925359E1,8.584251404E-1,-8.876773834E0,-2.502294302E0
1.812925359E1,8.524430394E-1,-8.428717613E0,-2.944368362E0
1.813925359E1,4.695914388E-1,-7.968697548E0,-3.134597778E0
1.814925359E1,1.579262912E-1,-7.823333740E0,-3.460619688E0
1.815925359E1,-3.050848842E-1,-8.021938324E0,-3.070589542E0
1.816925359E1,-1.240080357E0,-8.703892708E0,-2.130808592E0
1.817925359E1,-1.898106575E0,-9.557532310E0,-1.137787223E0
1.818925359E1,-1.919641972E0,-1.050209904E1,-8.554340899E-2
1.819925359E1,-1.310668588E0,-1.051226807E1,8.213363886E-1
1.820925359E1,4.785645287E-3,-9.939785004E0,1.284945726E0
1.821925359E1,1.202393413E0,-9.151350021E0,3.138186932E0
1.822925359E1,1.884945989E0,-8.455636978E0,5.252245903E0
1.823925359E1,1.647458434E0,-8.181060791E0,6.407381058E0
1.824925359E1,1.121037364E0,-8.140382767E0,5.950351715E0
1.825925359E1,-5.443671346E-2,-8.213961601E0,3.800400496E0
1.826925359E1,-7.076773047E-1,-8.364111900E0,1.790429592E0
1.827925359E1,-8.117650747E-1,-8.041080475E0,-1.280160099E-1
1.828925359E1,-9.565308690E-1,-7.615158081E0,-9.158528447E-1
1.829925359E1,-9.290133715E-1,-7.673782349E0,-1.452443361E0
1.830925359E1,-8.231309652E-1,-8.248059273E0,-1.484746456E0
1.831925359E1,-8.703892231E-1,-8.967103004E0,-1.254437327E0
1.832925359E1,-9.224331379E-1,-9.441479683E0,-1.181456208E0
1.833925359E1,-1.031904817E0,-1.000379372E1,-8.452646136E-1
1.834925359E1,-1.074377418E0,-1.023111153E1,-4.492524564E-1
1.835925359E1,-1.046261668E0,-9.860223770E0,-8.781659007E-1
1.836925359E1,-1.003789067E0,-9.443274498E0,-9.134600163E-1
1.837925359E1,-9.702895880E-1,-9.672387123E0,-1.005583763E0
1.838925359E1,-1.055832982E0,-1.019462109E1,-9.326026440E-1
1.839925359E1,-1.146162033E0,-1.012104130E1,-4.731806815E-1
1.840925359E1,-1.068993568E0,-9.716654778E0,-1.393819153E-1
1.841925359E1,-9.774680734E-1,-9.355338097E0,2.697907388E-1
1.842925359E1,-9.960124493E-1,-9.114859581E0,8.650053740E-1
1.843925359E1,-1.149153113E0,-9.205188751E0,7.776673436E-1
1.844925359E1,-1.364507079E0,-9.195018768E0,6.095715761E-1
1.845925359E1,-1.527219057E0,-9.185447693E0,6.233302951E-1
1.846925359E1,-1.569691658E0,-9.401400566E0,6.981059909E-1
1.847925359E1,-1.354935765E0,-9.987043381E0,2.500499785E-1
1.848925359E1,-8.913264275E-1,-1.043988514E1,5.742774159E-2
1.849925359E1,-4.366901219E-1,-1.086161995E1,1.764706671E-1
1.850925359E1,-6.340979785E-2,-1.157109165E1,3.840480447E-1
1.851925359E1,4.773681164E-1,-1.207777214E1,3.828516304E-1
1.852925359E1,1.165304661E0,-1.184088326E1,8.075776696E-2
1.853925359E1,1.843669891E0,-1.114457130E1,-2.141576260E-1
1.854925359E1,2.187039852E0,-1.069292641E1,-4.061816335E-1
1.855925359E1,2.301297188E0,-1.054696369E1,-7.974081635E-1
1.856925359E1,2.008774519E0,-1.038126087E1,-1.324427366E0
1.857925359E1,1.615155339E0,-1.034776115E1,-2.163709879E0
1.858925359E1,1.274776220E0,-1.063190937E1,-2.617149830E0
1.859925359E1,1.012163997E0,-1.124985600E1,-2.574079037E0
1.860925359E1,8.937192559E-1,-1.271904850E1,-2.602792740E0
1.861925359E1,7.459624410E-1,-1.271605778E1,-2.340180635E0
1.862925359E1,3.020938635E-1,-1.272024536E1,-1.709671736E0
1.863925359E1,-4.797609448E-1,-1.291705513E1,-2.679961324E-1
1.864925359E1,-1.128215909E0,-1.266461182E1,6.317051649E-1
1.865925359E1,-7.357929349E-1,-1.155314636E1,1.286740422E0
1.866925359E1,2.321037948E-1,-1.120140076E1,2.532802820E0
1.867925359E1,1.225125194E0,-9.503094673E0,2.011167526E0
1.868925359E1,6.532405615E-1,-9.165108681E0,7.082754970E-1
1.869925359E1,-8.392825127E-1,-9.311669350E0,-2.784049034E0
1.870925359E1,-2.328814745E0,-9.500701904E0,-4.136591911E0
1.871925359E1,-3.919443607E0,-1.036391354E1,-3.320041418E0
1.872925359E1,-5.038087845E0,-1.189292717E1,-7.722834945E-1
1.873925359E1,-6.628716946E0,-1.342493153E1,-1.944168359E-1
1.874925359E1,-6.737590313E0,-1.367199039E1,3.116651475E-1
1.875925359E1,-5.164309502E0,-1.233739376E1,5.461617708E-1
1.876925359E1,-3.275774240E0,-1.150947666E1,8.267202377E-1
1.877925359E1,-1.362712502E0,-1.094895840E1,1.005583763E0
1.878925359E1,7.794619799E-1,-1.022273636E1,1.468594909E0
1.879925359E1,3.404388428E0,-8.648259163E0,1.790429592E0
1.880925359E1,4.980660439E0,-8.821140289E0,6.077769399E-1
1.881925359E1,4.156332970E0,-9.881160736E0,-6.664010882E-1
1.882925359E1,3.540779352E0,-9.926026344E0,-2.733201742E0
1.883925359E1,2.306680918E0,-1.005763149E1,-3.289532900E0
1.884925359E1,7.573283911E-1,-9.964311600E0,-3.112463951E0
1.885925359E1,3.134597540E-1,-9.422935486E0,-2.455035925E0
1.886925359E1,-4.695914388E-1,-8.777471542E0,-1.725823283E0
1.887925359E1,-1.249053478E0,-8.787042618E0,-1.848455548E0
1.888925359E1,-1.731207132E0,-8.193024635E0,-1.205384374E0
1.889925359E1,-1.956132531E0,-7.907082558E0,-1.036690354E0
1.890925359E1,-2.419143677E0,-7.653443336E0,-3.948157430E-1
1.891925359E1,-2.786442041E0,-7.254439831E0,1.088734269E-1
1.892925359E1,-2.891726255E0,-6.725028038E0,3.272185028E-1
1.893925359E1,-2.824727058E0,-6.448058605E0,4.253242314E-1
1.894925359E1,-2.733799934E0,-6.102295876E0,2.410768867E-1
1.895925359E1,-2.596212626E0,-5.878567219E0,-2.745763958E-1
1.896925359E1,-2.410768747E0,-5.851049423E0,-7.668996453E-1
1.897925359E1,-1.956730723E0,-5.912664890E0,-8.033902049E-1
1.898925359E1,-1.554736495E0,-5.926423550E0,-8.979067206E-1
1.899925359E1,-1.216152072E0,-6.144768715E0,-1.171286702E0
1.900925359E1,-9.631111026E-1,-6.605386734E0,-1.642074585E0
1.901925359E1,-7.818548083E-1,-7.396812916E0,-2.077568293E0
1.902925359E1,-1.950150430E-1,-8.552546501E0,-3.165106058E0
1.903925359E1,3.302095234E-1,-9.327222824E0,-4.010370731E0
1.904925359E1,1.085145116E0,-1.018026352E1,-4.444069862E0
1.905925359E1,1.779063582E0,-1.116132164E1,-4.323232174E0
1.906925359E1,3.415754318E0,-1.224885941E1,-4.012165546E0
1.907925359E1,5.147559643E0,-1.285185051E1,-3.726821184E0
1.908925359E1,6.147759438E0,-1.312702465E1,-3.241078377E0
1.909925359E1,6.151947021E0,-1.280937767E1,-3.535993576E0
1.910925359E1,5.318646431E0,-1.176431274E1,-3.896711588E0
1.911925359E1,4.265804768E0,-1.046740246E1,-4.055236340E0
1.912925359E1,3.438486099E0,-9.731011391E0,-4.034897327E0
1.913925359E1,2.362314224E0,-9.120841980E0,-3.766901016E0
1.914925359E1,1.133599758E0,-8.840881348E0,-3.611367464E0
1.915925359E1,2.590230405E-1,-8.722436905E0,-3.513859987E0
1.916925359E1,-2.662015259E-1,-9.829715729E0,-3.288336515E0
1.917925359E1,-1.195813060E0,-1.204307652E1,-2.280958176E0
1.918925359E1,-2.264208317E0,-1.354995632E1,-1.030708313E0
1.919925359E1,-3.367299557E0,-1.419542027E1,-5.072783828E-1
1.920925359E1,-4.069592953E0,-1.485883045E1,-1.645065546E-1
1.921925359E1,-4.264608383E0,-1.459980774E1,4.875376225E-1
1.922925359E1,-4.134199142E0,-1.354337597E1,1.462014675E0
1.923925359E1,-3.708875179E0,-1.212742329E1,1.664208174E0
1.924925359E1,-3.320041418E0,-1.040159988E1,4.456632137E-1
1.925925359E1,-3.375076294E0,-9.097511292E0,-6.281159520E-1
1.926925359E1,-3.248854876E0,-8.484351158E0,-2.271386862E0
1.927925359E1,-2.333600283E0,-8.440083504E0,-3.838087559E0
1.928925359E1,-1.167697430E0,-8.163712502E0,-4.234099865E0
1.929925359E1,-3.726821244E-1,-7.941778183E0,-3.650250912E0
1.930925359E1,5.467599630E-1,-7.884350777E0,-2.827120066E0
1.931925359E1,1.738983870E0,-7.665407181E0,-1.724626899E0
1.932925359E1,3.224328518E0,-7.738388538E0,2.099701911E-1
1.933925359E1,4.543372154E0,-7.938189030E0,2.488535643E0
1.934925359E1,4.521238327E0,-8.743373871E0,3.416950703E0
1.935925359E1,3.187239647E0,-1.030708313E1,2.980858803E0
1.936925359E1,2.623131752E0,-1.049850941E1,2.929413080E0
1.937925359E1,1.370489120E0,-1.054277611E1,2.996412039E0
1.938925359E1,3.373879790E-1,-1.043809032E1,2.954537868E0
1.939925359E1,-7.489534616E-1,-1.005823040E1,2.536391973E0
1.940925359E1,-1.586441398E0,-9.672985077E0,2.018345833E0
1.941925359E1,-2.109273195E0,-9.533603668E0,1.107278705E0
1.942925359E1,-2.215753794E0,-9.499505997E0,2.356930375E-1
1.943925359E1,-2.001596212E0,-9.285347939E0,-2.793620527E-1
1.944925359E1,-1.701895118E0,-9.022735596E0,-9.326026440E-1
1.945925359E1,-1.444068432E0,-8.720044136E0,-1.087537885E0
1.946925359E1,-1.281356573E0,-8.955139160E0,-1.002592683E0
1.947925359E1,-8.225327730E-1,-9.049057007E0,-1.178465128E0
1.948925359E1,-9.571290575E-3,-9.095717430E0,-1.280758262E0
1.949925359E1,6.119644046E-1,-9.424132347E0,-1.433898926E0
1.950925359E1,8.554341197E-1,-9.668199539E0,-1.472782373E0
1.951925359E1,6.305087805E-1,-9.771091461E0,-1.886142492E0
1.952925359E1,1.651047617E-1,-9.795019150E0,-2.668595552E0
1.953925359E1,-1.513460279E-1,-9.878170013E0,-3.177668571E0
1.954925359E1,-2.895315289E-1,-9.976275444E0,-2.872583628E0
1.955925359E1,-3.026920557E-1,-1.007557774E1,-2.236092806E0
1.956925359E1,-2.494517565E-1,-1.004028416E1,-1.785643935E0
1.957925359E1,-2.817548811E-1,-9.880562782E0,-1.325025558E0
1.958925359E1,-2.338984162E-1,-9.681360245E0,-9.936196208E-1
1.959925359E1,-2.093719840E-1,-9.577870369E0,-7.100701332E-1
1.960925359E1,-1.998006850E-1,-9.488140106E0,-5.611169338E-1
1.961925359E1,-1.136590764E-1,-9.488140106E0,-5.078766346E-1
1.962925359E1,6.819544733E-2,-9.454640388E0,-4.929214716E-1
1.963925359E1,3.074777126E-1,-9.478569031E0,-4.534398913E-1
1.964925359E1,4.893322289E-1,-9.561120987E0,-3.050848842E-1
1.965925359E1,6.574280262E-1,-9.772287369E0,-1.381855011E-1
1.966925359E1,6.622136831E-1,-9.907482147E0,3.828516230E-2
1.967925359E1,4.235295951E-1,-9.947562218E0,3.146561682E-1
1.968925359E1,1.657029688E-1,-9.895518303E0,4.001995921E-1
1.969925359E1,-8.793623000E-2,-9.867402077E0,4.522434771E-1
1.970925359E1,-3.505485058E-1,-9.949954987E0,5.700899959E-1
1.971925359E1,-4.510470629E-1,-1.001755238E1,6.221339107E-1
1.972925359E1,-5.030909777E-1,-1.008036327E1,6.981059909E-1
1.973925359E1,-5.324030519E-1,-1.024606609E1,4.576273263E-1
1.974925359E1,-5.138586760E-1,-1.048176003E1,-1.519442350E-1
1.975925359E1,-4.713860750E-1,-1.070847988E1,-5.557330847E-1
1.976925359E1,-3.044866920E-1,-1.098006535E1,-7.483552694E-1
1.977925359E1,1.136590727E-2,-1.129113197E1,-7.441678643E-1
1.978925359E1,1.645065546E-1,-1.168834019E1,-7.076773047E-1
1.979925359E1,2.554338276E-1,-1.253898907E1,-8.901300430E-1
1.980925359E1,2.554338276E-1,-1.312642670E1,-1.118644595E0
1.981925359E1,2.362912297E-1,-1.334058475E1,-1.273579836E0
1.982925359E1,2.356930375E-1,-1.333998585E1,-1.407577872E0
1.983925359E1,4.414757788E-1,-1.270289707E1,-1.417149186E0
1.984925359E1,8.428717852E-1,-1.201555920E1,-1.095314622E0
1.985925359E1,1.250249863E0,-1.141496086E1,-6.873382926E-1
1.986925359E1,1.698904037E0,-1.059601688E1,-6.472585201E-1
1.987925359E1,2.439482689E0,-1.021914768E1,-1.163509965E0
1.988925359E1,2.408974171E0,-9.707083702E0,-1.859821439E0
1.989925359E1,5.623133108E-2,-1.004148006E1,-2.316252232E0
1.990925359E1,-9.487541914E-1,-9.734002113E0,-2.590828657E0
1.991925359E1,-4.779663086E-1,-9.097511292E0,-1.033699393E0
1.992925359E1,-6.119644046E-1,-1.007019424E1,1.420738459E0
1.993925359E1,-6.538388133E-1,-1.124925709E1,1.686341763E0
1.994925359E1,-5.802595019E-1,-1.116849995E1,2.075773627E-1
1.995925359E1,-7.836493850E-2,-1.125703430E1,-2.572284266E-2
1.996925359E1,4.157529473E-1,-1.107039356E1,8.009973764E-1
1.997925359E1,6.903293133E-1,-1.105424213E1,2.042274237E0
1.998925359E1,2.887538671E0,-1.054516983E1,3.557528973E0
1.999925359E1,3.412165165E0,-9.963713646E0,3.261417150E0
2.000925359E1,3.896113396E0,-9.435498238E0,3.817150354E0
2.001925359E1,3.939184189E0,-8.537590981E0,4.071985722E0
2.002925359E1,3.699303865E0,-7.549953461E0,3.742374659E0
2.003925359E1,2.268395901E0,-7.805387497E0,3.088535786E0
2.004925359E1,5.252245665E-1,-8.413763046E0,1.473978758E0
2.005925359E1,-2.847459018E-1,-8.807381630E0,6.041877344E-2
2.006925359E1,6.340979785E-2,-9.359525681E0,-4.061816335E-1
2.007925359E1,6.664010882E-1,-9.827920914E0,-4.737788737E-1
2.008925359E1,1.135394335E0,-1.012463093E1,-3.397808075E-1
2.009925359E1,1.427318692E0,-1.033160973E1,-1.483550072E-1
2.010925359E1,1.045065284E0,-1.028614616E1,2.045863420E-1
2.011925359E1,6.723831892E-1,-9.393025398E0,3.816552162E-1
2.012925359E1,1.369891018E-1,-9.269196510E0,4.713860750E-1
2.013925359E1,-3.888336718E-1,-9.567701340E0,6.203392744E-1
2.014925359E1,-6.801598072E-1,-1.003131104E1,5.395814776E-1
2.015925359E1,-8.817551732E-1,-9.867402077E0,2.913261652E-1
2.016925359E1,-7.956135273E-1,-9.800403595E0,2.823530734E-1
2.017925359E1,-8.626125455E-1,-9.924830437E0,3.337987661E-1
2.018925359E1,-6.705885530E-1,-9.744770050E0,6.137589812E-1
2.019925359E1,-7.034898400E-1,-9.550951958E0,9.882357717E-1
2.020925359E1,-1.062413216E0,-9.489336014E0,1.087537885E0
2.021925359E1,-1.560120344E0,-9.316454887E0,8.668000102E-1
2.022925359E1,-1.861017823E0,-9.393025398E0,8.937192559E-1
2.023925359E1,-1.875374794E0,-9.636494637E0,7.866404653E-1
2.024925359E1,-1.445863128E0,-1.022273636E1,4.205385745E-1
2.025925359E1,-5.904290080E-1,-1.067378330E1,-1.435693540E-2
2.026925359E1,-1.597209126E-1,-1.112183952E1,-2.171486616E-1
2.027925359E1,1.932204217E-1,-1.123430252E1,-6.137589812E-1
2.028925359E1,4.271188378E-1,-1.106022453E1,-8.799605370E-1
2.029925359E1,3.738785386E-1,-1.037408257E1,-1.158126116E0
2.030925359E1,3.056831062E-1,-9.797411919E0,-1.533201098E0
2.031925359E1,4.677968323E-1,-9.259027481E0,-1.840080619E0
2.032925359E1,7.543373108E-1,-8.822935104E0,-1.898704767E0
2.033925359E1,1.156331539E0,-8.553144455E0,-1.363908887E0
2.034925359E1,1.238883972E0,-8.648259163E0,-6.795616150E-1
2.035925359E1,1.033699393E0,-8.822337151E0,-4.420739710E-1
2.036925359E1,6.753742099E-1,-9.086145401E0,-4.594219327E-1
2.037925359E1,3.074777126E-1,-9.283554077E0,-2.512463629E-1
2.038925359E1,4.067798331E-2,-9.425328255E0,1.920240223E-1
2.039925359E1,-2.165504545E-1,-9.457033157E0,5.497509837E-1
2.040925359E1,-4.558327198E-1,-9.346963882E0,6.071787477E-1
2.041925359E1,-5.659025311E-1,-9.175278664E0,6.556333899E-1
2.042925359E1,-6.137589812E-1,-9.150752068E0,5.359922647E-1
2.043925359E1,-8.626125455E-1,-9.427721024E0,3.990031779E-1
2.044925359E1,-1.249651670E0,-1.015513897E1,3.978067636E-1
2.045925359E1,-1.760519266E0,-1.177388382E1,5.150550604E-1
2.046925359E1,-2.284547329E0,-1.352842140E1,8.560323119E-1
2.047925359E1,-2.761915445E0,-1.466919899E1,1.052842021E0
2.048925359E1,-3.183650494E0,-1.478166199E1,6.723831892E-1
2.049925359E1,-3.457628727E0,-1.392503166E1,-1.519442350E-1
2.050925359E1,-3.335594654E0,-1.227458191E1,-7.920243144E-1
2.051925359E1,-2.882753134E0,-1.048654556E1,-1.180858016E0
2.052925359E1,-2.505883455E0,-9.555737495E0,-1.465603828E0
2.053925359E1,-2.181057930E0,-8.923434258E0,-1.575673699E0
2.054925359E1,-1.812563181E0,-8.536395073E0,-1.360917926E0
2.055925359E1,-1.258026481E0,-8.102695465E0,-1.054038405E0
2.056925359E1,-5.258227587E-1,-7.677969456E0,-7.998009920E-1
2.057925359E1,2.871387079E-2,-7.361518860E0,-7.525427341E-1
2.058925359E1,1.018744230E0,-7.022336483E0,-5.551348329E-1
2.059925359E1,1.904088616E0,-6.823133945E0,-1.292124242E-1
