window_id,activity_id,activity_name,recording_folder,window_start_idx,window_start_time_s,window_end_time_s,acc_x,acc_y,acc_z,gyr_x,gyr_y,gyr_z
0,3,falling,3_falling,0,8.232607406,10.75388549,"[2.239681959, 2.196611166, 2.173281193, 2.106282234, 2.039283037, 2.048854351, 2.067996979, 2.058425665, 2.077568293, 2.125424623, 2.1302104, 2.091925144, 2.048854351, 2.06261301, 2.067398787, 2.105684042, 2.086541414, 2.134397745, 2.20618248, 2.249253273, 2.354537487, 2.378465652, 2.354537487, 2.325823545, 2.335394859, 2.220539331, 2.268395901, 2.321038008, 2.258824587, 2.282752752, 2.330609322, 2.249253273, 2.201396942, 2.201396942, 2.139183521, 2.143969059, 2.158325911, 2.163111687, 2.153540373, 2.206780672, 2.216351986, 2.240280151, 2.235494614, 2.263610125, 2.273181438, 2.263610125, 2.297109842, 2.268395901, 2.196611166, 2.215753794, 2.30189538, 2.029113531, 2.148754835, 2.2259233, 2.230708838, 2.196611166, 2.158325911, 2.167897224, 2.210968018, 2.225325108, 2.220539331, 2.187039852, 2.249253273, 2.244467735, 2.273779631, 2.34137702, 2.384447813, 2.288136721, 2.259422779, 2.273779631, 2.024327993, -1.503290772, -1.575075507, -1.623530149, -1.59003067, -1.575673699, -1.575673699, -1.622931957, -1.484148264, -1.541576028, -1.541576028, -1.512862086, -1.5224334, -1.527219057, -1.566102386, -1.489532113, -1.479960799, -1.465603828, -1.427318692, -1.465603828, -1.508674622, -1.512862086, -1.555932879, -1.546361685, -1.518245935, -1.489532113, -1.475175142, -1.484746456, -1.475175142, -1.470389485, -1.503889084, -1.54217422, -1.537388563, -1.508674622, -1.479960799, -1.465603828, -1.465603828, -1.436890006, -1.441675663, -1.499103427, -1.527219057, -1.555932879, -1.561316729, -1.575673699, -1.518245935, -1.475175142, -1.513460279, -1.479960799, -1.436890006, -1.412961721, -1.475175142, -1.551745534, -1.579861164, -1.604387641, -1.642672777, -1.642672777, -1.685145378, -1.737787485, -1.695314884, -1.628315806, -1.488933921, -1.402792215, -1.359721422, -1.316650629, -1.316650629, -1.259222865, -1.2352947, -1.125224829, -1.049252748, -1.006181955, -0.9631111026, -0.9577272534, -1.0863415, -1.210768223, -1.301695466, -1.329811215, -1.238883972, -1.191027522, -1.272383451, -1.253839016, -1.219741344, -1.50269258, -1.942971945, -2.330011129, -2.687737942, -2.811566591, -2.687737942, -2.335394859, -1.622931957, -1.456032634, -1.581057549, -1.704886079, -1.880758643, -1.57028985, -1.456032634, -1.441675663, -1.259821177, -1.115055323, -1.057029366, -1.157527924, -1.425524116, -1.592423439, -1.677966833, -1.586441398, -1.681556106, -1.610369682, -1.80658114, -1.758724689, -1.615155339, -1.486541033, -1.335195065, -1.631905079, -2.127817631, -2.676970243, -2.413759947, -1.654038668, -0.8219345808, -0.1860419661, 0.2153540403, 0.2057827413, -0.06161518395, -0.166301176, -0.1992024779, -0.3326023519, -0.418743968, -0.4761717021, 0.05024927482, 0.3714857101, 0.4019941986, -0.1974078715, -0.4528416991, -0.3020938635, -0.1938186288, -0.07597211748, 0.4941178858, 2.575275421, 2.267797709, 0.5599204898, 2.015354872, 3.119642496, 4.031308174, 3.112463951, 1.13419795, 2.035095692, 5.689534187, 10.72702408, 14.1930275, 13.06182098, 11.42752266, 11.77328587, 6.929016113, 3.805186272, 3.727419376, 4.621138573, 5.212165833, 5.717649937, 6.904489517, 7.350152969, 8.124231339, 8.614161491, 8.452047348, 8.772088051, 8.234899521, 8.074580193, 7.627122402, 6.965506554, 6.552146435, 6.958328247, 8.721240044, 12.10469151, 15.15075493, 13.71565914, 11.27498055, 9.784850121, 8.478368759, 6.053841114, 4.48833704, 2.447259426, 0.9020941257, 0.07238288224]","[0.7908278704, 0.8141579032, 0.8524430394, 0.8285148144, 0.8237292171, 0.8333004713, 0.8572286963, 0.8620143533, 0.8428717852, 0.8422735929, 0.8422735929, 0.8141579032, 0.799800992, 0.8003991842, 0.8003991842, 0.7860422134, 0.7722834945, 0.7680960894, 0.7860422134, 0.7668996453, 0.7908278704, 0.7908278704, 0.7525427341, 0.7674978375, 0.7866404653, 0.7633104324, 0.7579265833, 0.7674978375, 0.7148557901, 0.7531409264, 0.7663014531, 0.7764709592, 0.7764709592, 0.7764709592, 0.7621139884, 0.7525427341, 0.7531409264, 0.733400166, 0.709471941, 0.72323066, 0.718445003, 0.7040880919, 0.7136593461, 0.7716853023, 0.8009973764, 0.8249256015, 0.8392825127, 0.8434699774, 0.7477570772, 0.7531409264, 0.7525427341, 0.6388836503, 0.6927221417, 0.7567301393, 0.775872767, 0.7573283911, 0.7477570772, 0.709471941, 0.6759724021, 0.7477570772, 0.7429714203, 0.643071115, 0.8201399446, 0.8105686903, 0.6693921089, 0.5916253924, 0.6155536175, 0.650847733, 0.6610172391, 0.6323033571, 0.5970092416, -9.579665184, -9.464211464, -9.449256897, -9.458827972, -9.468399048, -9.477970123, -9.502496719, -9.497711182, -9.564710617, -9.526425362, -9.545567513, -9.588638306, -9.583254814, -9.607182503, -9.635896683, -9.626325607, -9.650253296, -9.712467194, -9.659825325, -9.611968994, -9.574281693, -9.564710617, -9.526425362, -9.540184021, -9.577870369, -9.573084831, -9.577870369, -9.583254814, -9.631111145, -9.626325607, -9.601799011, -9.59282589, -9.573683739, -9.607182503, -9.631111145, -9.673583984, -9.687940598, -9.606584549, -9.554540634, -9.555138588, -9.746564865, -9.741181374, -9.678369522, -9.601799011, -9.649655342, -9.707083702, -9.677771568, -9.59641552, -9.582057953, -9.601799011, -9.650253296, -9.64068222, -9.635896683, -9.740582466, -9.788438797, -9.812965393, -9.769296646, -9.65444088, -9.587442398, -9.660423279, -9.722636223, -9.660423279, -9.598209381, -9.57906723, -9.655637741, -9.594022751, -9.493523598, -9.445667267, -9.4307127, -9.527023315, -9.68674469, -9.597013474, -9.44865799, -9.234500885, -9.001200676, -8.824729919, -8.748159409, -8.919844627, -9.139386177, -9.469595909, -9.506086349, -9.504291534, -9.376275063, -9.299705505, -9.072386742, -8.739784241, -8.896514893, -9.459425926, -9.777072906, -9.93918705, -10.01755238, -10.20778179, -9.642477036, -8.890532494, -8.594420433, -8.504091263, -8.803194046, -8.676973343, -8.648259163, -8.891729355, -9.036494255, -8.781061172, -8.397012711, -8.073383331, -7.52722168, -7.535596848, -7.41176796, -6.991827965, -6.789036274, -6.425925255, -7.055835724, -7.891529083, -8.463413239, -8.062616348, -7.558926582, -7.166503906, -6.887740135, -6.649055958, -6.256632805, -6.019743443, -5.763113499, -5.331208706, -5.017150879, -5.226522923, -5.74636364, -6.087340832, -5.967101574, -5.806782246, -5.766702652, -6.054439545, -7.395616531, -9.309874535, -10.32084274, -9.208179474, -8.490332603, -8.484351158, -9.34815979, -8.206783295, -6.684350014, -3.785445452, -1.152144074, -3.900899172, -3.966103554, -2.863012314, -2.488535643, -0.8949156404, -0.8147560954, -1.345962763, -1.568495274, -1.684547186, -1.365105271, -1.20717907, 0.9343972206, 2.106282234, 3.142374277, 3.210569859, 3.410370588, 5.315655708, 3.792025566, 2.36650157, 2.23130703, 3.311666489, 2.967698336, 2.938984394, 3.232105255, 3.721437454, 4.348356724, 5.344369411, 7.098906517, 8.892925262, 9.687342644, 10.91186905, 11.51186943, 11.35573769, 9.847661972, 8.770293236, 7.877171993, 7.29631424, 7.016354084]","[9.540781975, 9.593423843, 9.660423279, 9.641280174, 9.602396965, 9.611968994, 9.598209381, 9.626923561, 9.622138023, 9.67956543, 9.674779892, 9.64068222, 9.573683739, 9.511469841, 9.511469841, 9.506684303, 9.406186104, 9.358329773, 9.531210899, 9.540781975, 9.546165466, 9.541379929, 9.521639824, 9.445069313, 9.421739578, 9.378069878, 9.411569595, 9.478569031, 9.430113792, 9.454640388, 9.602995872, 9.55035305, 9.492925644, 9.535996437, 9.521040916, 9.501898766, 9.449256897, 9.497113228, 9.521040916, 9.616754532, 9.64068222, 9.607182503, 9.607182503, 9.492925644, 9.478569031, 9.450452805, 9.469595909, 9.498309135, 9.482755661, 9.444471359, 9.57906723, 9.294919968, 9.185447693, 9.612566948, 9.660423279, 9.544969559, 9.477970123, 9.487542152, 9.487542152, 9.482755661, 9.530612946, 9.467801094, 9.406784058, 9.40199852, 9.779465675, 10.01874828, 10.00498962, 9.722038269, 9.588040352, 9.631111145, 9.11725235, 1.377667665, 1.305882931, 1.219741344, 1.181456208, 1.205384374, 1.253240824, 1.310668588, 1.349551916, 1.277169108, 1.277169108, 1.291526079, 1.271785259, 1.257428288, 1.185643673, 1.195214868, 1.204786181, 1.233500123, 1.266999602, 1.228714466, 1.257428288, 1.286740422, 1.329811215, 1.267597795, 1.214955688, 1.14795661, 1.095314622, 1.119242787, 1.258026481, 1.238285661, 1.200000525, 1.166501045, 1.195214868, 1.200598717, 1.195214868, 1.200000525, 1.176072359, 1.156929731, 1.143171072, 1.210170031, 1.296311617, 1.280758262, 1.189232826, 1.089332461, 1.085145116, 1.109073281, 1.079761267, 1.022931695, 1.023529887, 1.05224371, 1.128215909, 1.190429211, 1.232901812, 1.185045362, 1.112662554, 1.116850019, 1.150349498, 1.135992527, 1.136590719, 1.147358418, 1.300499082, 1.362712502, 1.310668588, 1.383051515, 1.354337573, 1.397408366, 1.435693622, 1.508674622, 1.451845169, 1.409372568, 1.499701619, 1.791027784, 1.948953986, 1.963909149, 2.132004976, 2.248655081, 2.369492531, 2.399402857, 2.277967215, 2.204986095, 2.236690998, 1.880758643, 1.510469317, 1.725225091, 2.428116798, 2.721237659, 2.398206472, 1.541576028, 1.262812138, 0.8877372146, 0.733400166, 1.009771109, 1.51106751, 1.47756803, 1.405783296, 1.484746456, 1.615155339, 2.078166485, 2.529213428, 2.543570518, 2.378465652, 2.57766819, 3.048455954, 3.611367464, 3.895515203, 3.745963812, 3.525225878, 3.707678795, 3.907479286, 3.569493294, 2.925823927, 2.599801779, 3.028116941, 3.333800077, 3.5766716, 3.486940861, 3.583850145, 3.454039574, 3.643670797, 3.602992773, 4.000799656, 4.294518471, 4.857429981, 5.102694511, 4.895116806, 4.642673969, 4.829314232, 5.520840168, 6.69511795, 8.594420433, 10.16710377, 11.14516926, 9.658628464, 8.288139343, 6.47796917, 4.512863636, 3.486940861, 2.952743053, 4.287340164, 7.293921471, 12.96132183, 18.72084618, 18.73879242, 20.10688782, 20.98505402, 19.89572144, 14.30728436, 9.783055305, 10.31904793, 13.75693512, 16.40519142, 18.46840286, 17.61655807, 15.19203091, 11.58126163, 8.242675781, 5.925227165, 3.859622955, 3.903291941, 5.015954494, 4.886742115, 4.350749969, 3.695116282, 2.049452543, 0.5347958803, -0.4863412082, -1.499701619, -1.436890006, -2.041077614, -2.860021353, -2.338984251, 0.5096712112, 2.605783939, 3.652643681, 3.143570662, 5.198407173, 6.626324177, 6.790232658, 6.12921524, 4.869992256]","[-0.0155770639, -0.005650503561, -0.00320704258, 0.004123340361, 0.01282817032, 0.02031126991, 0.02886338346, 0.0262672063, 0.02122756653, 0.01863138936, 0.01847867295, 0.02840523422, 0.03222314268, 0.02748893574, 0.01542434748, 0.007024950348, -0.001374446787, -0.01725694351, -0.03558290005, -0.03680463135, -0.03069597855, -0.02809980139, -0.02809980139, -0.02809980139, -0.02687807009, -0.02794708498, -0.03054326214, -0.0282525178, -0.01985312067, -0.01618792862, -0.0140499007, -0.01298088674, -0.004123340361, -0.002901609987, -0.005345070735, -0.004276056774, -0.004123340361, -0.007788531948, -0.01267545391, -0.01389718428, -0.007635815535, 0.004581489135, 0.007024950348, 0.004581489135, -0.006566801574, -0.005345070735, -0.001527163084, -0.006414085161, -0.01023199316, -0.01023199316, -0.01053742506, -0.04001167417, -0.06566801667, -0.05207626149, -0.03252857551, -0.01878410578, -0.01359175146, -0.01970040426, -0.04214970022, -0.06337726861, -0.07574728876, -0.08032877743, -0.08964447677, -0.1215621829, -0.08720101416, 0.02306016348, 0.1098030284, 0.141720742, 0.1502728462, 0.1708895564, 0.1252273768, nan, 0.0726929605, 0.05283984542, 0.02809980139, 0.008399397135, 0.004734205548, 0.008704829961, 0.01863138936, 0.03115412779, 0.03268129006, 0.02290744707, 0.01679879427, 0.0155770639, 0.01450804994, 0.01466076635, 0.01206458826, 0.009621127509, 0.01664607786, 0.01786780916, 0.01053742506, 0.009162978269, 0.01649336144, 0.0201585535, 0.02122756653, 0.0140499007, 0.01160643995, 0.01191187184, 0.02657263726, 0.03756821156, 0.03405573592, 0.03054326214, 0.03298672289, 0.02687807009, 0.0293215327, 0.03420845419, 0.03787364438, 0.03665191308, 0.03069597855, 0.02718350291, 0.03940080851, 0.05635231733, 0.06627888232, 0.0601702258, 0.05543602258, 0.06780604273, 0.08750644326, 0.09743300825, 0.1000291854, 0.1001819, 0.1125519201, 0.1421788931, 0.1777617931, 0.2147191316, 0.2492330223, 0.2790127099, 0.3124575615, 0.3436116874, 0.3747658134, 0.3972151279, 0.4366159439, 0.4746423066, 0.511752367, 0.5377141237, 0.5739079118, 0.6174320579, 0.6717990637, 0.72356987, 0.7544185519, 0.7783950567, 0.8013024926, 0.8310821652, 0.8397870064, 0.8397870064, 0.8516988754, 0.8657487631, 0.8784242272, 0.893848598, 0.9358455539, 1.003651619, 1.065807104, 1.087950945, 1.089630842, 1.083674908, 1.12842083, 1.197448611, 1.226311922, 1.247692227, 1.245401502, 1.186452985, 1.13407135, 1.126435518, 1.172097683, 1.205084443, 1.194241524, 1.137278318, 1.078024387, 1.053284407, 1.055269718, 1.079856992, 1.129184365, 1.140027285, 1.130558848, 1.13819468, 1.159116745, 1.175762892, 1.18049705, 1.169348836, 1.184009552, 1.225090265, 1.307251573, 1.409418821, 1.482111812, 1.520901799, 1.517083883, 1.48684597, 1.450041413, 1.382998943, 1.333976984, 1.297019601, 1.27075243, 1.256397128, 1.220966935, 1.152397275, 1.075886369, 0.9815077186, 0.7973318696, 0.5595525503, 0.2333505303, -0.02351831272, 0.04963280261, 0.4476115108, 0.7829765081, 0.9801332951, 1.186147571, 1.386205912, 1.443780065, 1.404684663, 1.36100781, 1.224784851, 1.297477722, 1.934457541, 2.538145065, 3.067001581, 3.826001644, 4.165948391, 4.047134876, 3.637397051, 2.77256465, 1.8875736, 1.608713627, 1.897958279, 2.176512957, 2.588846922, 3.077386379, 3.317303658, 3.154049873, 2.655125856, 2.200031281, 2.008372307, 2.079385281, 2.279290915, 2.419942617, 2.498438835, 2.543031931, 2.557081938, 2.565328598, 2.585639954, 2.568993807, 2.455983639, 2.250580311, 2.257757902, 2.513557673, 2.542726517, 2.353358269, 2.131767035, 1.96698606, 1.824349046, 1.709506392, 1.481348276]","[0.04886921868, 0.0354301855, 0.03054326214, 0.03191770986, 0.02092213556, 0.01847867295, 0.02474004216, 0.03084869497, 0.03940080851, 0.054061573, 0.06872233748, 0.06643159688, 0.05543602258, 0.03451388702, 0.009773843922, -0.002596177394, -0.01359175146, -0.03344487399, -0.0300851129, -0.0313068442, -0.03726277873, -0.04337143153, -0.04948008433, -0.04703662544, -0.04337143153, -0.05436700583, -0.05192354694, -0.03115412779, -0.02000583708, -0.0125227375, 0.01695151068, 0.02916881628, 0.009621127509, 0.008552113548, 0.01084285788, 0.01328631863, 0.005955935922, 0.003512475174, -0.0003054326226, -0.003970623948, -0.008704829961, -0.01114829071, -0.004886921961, -0.0, 0.004734205548, 0.001069014193, -0.001374446787, -0.005039638374, -0.001527163084, -0.0003054326226, 0.03405573592, 0.03497203439, 0.01496619824, 0.007788531948, 0.01420261711, 0.002138028387, -0.02474004216, -0.02474004216, 0.008093964309, 0.0300851129, 0.04459316283, 0.01237002108, -0.02580905706, -0.03222314268, -0.03069597855, -0.009621127509, 0.03436116874, 0.03466660157, 0.03237585723, 0.04978551716, 0.07620543987, nan, 0.04749477282, 0.06811147183, 0.09346238524, 0.09697485715, 0.08949175477, 0.06750060618, 0.054061573, 0.02840523422, 0.002748893574, 0.0001527163113, -0.00122173049, -0.004886921961, -0.0171042271, -0.02199114859, -0.01847867295, -0.0109955743, 0.008704829961, 0.01359175146, 0.01221730467, 0.02336559631, 0.03451388702, 0.03573561832, 0.03817907721, 0.03313944116, 0.02092213556, 0.002596177394, -0.0009162978968, 0.002748893574, -0.0009162978968, -0.01450804994, -0.02183843218, -0.02306016348, -0.01572977938, -0.01450804994, -0.01572977938, -0.01328631863, -0.03405573592, -0.05375614017, -0.04627304152, -0.02764165215, -0.0251981914, -0.03756821156, -0.04749477282, -0.05345070735, -0.06185010448, -0.08017606288, -0.08872817457, -0.0972802937, -0.1069014147, -0.120187737, -0.1246165112, -0.1316414624, -0.149661988, -0.169056952, -0.1957823038, -0.2371684313, -0.2809980214, -0.3164281845, -0.3220787048, -0.3217732608, -0.3446807265, -0.3663664162, -0.4163046777, -0.4648684561, -0.4949535728, -0.5079344511, -0.5320636034, -0.5928447247, -0.6733261943, -0.7023423314, -0.7058547735, -0.7070765495, -0.6690501571, -0.6125451326, -0.5351179838, -0.4918992519, -0.5097670555, -0.5395467281, -0.499535054, -0.5028948188, -0.5445863605, -0.5595525503, -0.4870123267, -0.3932445049, -0.3488040566, -0.3915646076, -0.413403064, -0.5145012736, -0.6658431292, -0.8659014702, -1.004262447, -1.103222609, -1.120479584, -1.074512005, -1.047786593, -1.037707329, -1.001819015, -1.006247759, -1.030224204, -1.000749946, -0.9263771176, -0.829554975, -0.7250970602, -0.669508338, -0.660498023, -0.6615670323, -0.653778553, -0.7154759169, -0.9286679029, -1.183704138, -1.309542418, -1.374752283, -1.350928545, -1.275333881, -1.176221013, -1.114065528, -1.127504468, -1.225548387, -1.305266261, -1.335962296, -1.242041707, -1.148426652, -1.107651353, -1.129489779, -1.127810001, -1.055575132, -0.9695958495, -0.8399397135, -0.6864598393, -0.3733913898, -0.2857322097, -0.2426662147, -0.2223549485, -0.2364048511, -0.1218676195, -0.1356120855, -0.2890919745, -0.3909537494, -0.7493789196, -0.8535314798, -0.8078693151, -1.219439745, -2.036319256, -2.591595888, -3.208875179, -3.598149061, -3.451388597, -2.694068432, -2.2186625, -2.146885872, -2.247220516, -2.449875116, -2.664747, -2.809980154, -2.694373846, -2.320829868, -1.791056871, -1.218370676, -0.9702067375, -0.8423831463, -0.793972075, -0.7843509912, -0.8283332586, -0.8608618379, -0.8191702962, -0.4141666293, 0.208305046, 0.6536257863, 0.983951211, 0.6218608022, 0.4694499373, 0.6108652353, 0.3995058835, 0.00244346098, -0.07773260027, -0.04948008433, 0.01435533352, 0.125838235]","[-0.01481348183, -0.0160352122, -0.0160352122, -0.01114829071, -0.007635815535, -0.007635815535, -0.008857546374, -0.006414085161, -0.003817907767, -0.002596177394, -0.00122173049, -0.002596177394, -0.002596177394, 0.0009162978968, 0.004581489135, 0.006872233935, 0.01053742506, 0.01527163107, 0.02153299935, 0.0190895386, 0.01649336144, 0.01282817032, 0.01038470957, 0.009162978269, 0.009162978269, 0.01038470957, 0.009162978269, 0.004428773187, 0.001985311974, -0.004123340361, -0.008857546374, -0.01114829071, -0.008857546374, -0.007635815535, -0.003970623948, -0.005192354787, -0.006414085161, -0.003970623948, -0.0003054326226, 0.0007635815418, -0.0004581489484, -0.0004581489484, -0.0004581489484, 0.001985311974, 0.004581489135, 0.00320704258, 0.001985311974, 0.0007635815418, 0.00320704258, 0.00320704258, 0.002290744567, 0.01206458826, 0.01328631863, 0.008246680722, 0.004581489135, -0.0003054326226, -0.002901609987, -0.006566801574, -0.01496619824, -0.03313944116, -0.03665191308, 0.01084285788, 0.02153299935, 0.0300851129, 0.0239764601, 0.004428773187, -0.01511891466, -0.02122756653, -0.02367102914, -0.02855795063, -0.02947424725, nan, -0.03940080851, -0.03313944116, -0.0293215327, -0.02672535367, -0.01695151068, -0.007330383174, -0.007483099122, -0.002748893574, 0.0007635815418, -0.00167987938, -0.0004581489484, 0.0007635815418, 0.006872233935, 0.006719517522, 0.005650503561, 0.001985311974, -0.00167987938, -0.002748893574, -0.005192354787, -0.01130100712, -0.0125227375, -0.01007927675, -0.01007927675, -0.01007927675, -0.01007927675, -0.01145372353, -0.01145372353, -0.01023199316, -0.007788531948, -0.004123340361, -0.0006108652451, 0.0006108652451, 0.003054326167, 0.004276056774, 0.004276056774, 0.005497787148, 0.003054326167, 0.002901609987, 0.00167987938, 0.003054326167, 0.0140499007, 0.02000583708, 0.02244929783, 0.02367102914, 0.02840523422, 0.03558290005, 0.03313944116, 0.03069597855, 0.03054326214, 0.03649919853, 0.04382958263, 0.04856378585, 0.0532979928, 0.06414084882, 0.08109235764, 0.09789115191, 0.1134682223, 0.1241583601, 0.1313360333, 0.130114302, 0.1348485053, 0.1383609772, 0.1466076523, 0.1559233516, 0.1631010175, 0.1592831165, 0.1430951804, 0.1146899462, 0.08124507964, 0.06154467165, 0.05910121277, 0.06398813426, 0.0726929605, 0.07544185966, 0.06963863969, 0.05161811411, 0.02947424725, 0.01572977938, -0.009773843922, -0.0232128799, -0.01130100712, 0.01786780916, 0.06582073122, 0.1078177169, 0.120187737, 0.1137736514, 0.07941248268, 0.05100724846, 0.05146539584, 0.07971791178, 0.1472185254, 0.1588249654, 0.1490511149, 0.1322523206, 0.05436700583, -0.03833179548, -0.09789115191, -0.1273654103, -0.1250746548, -0.1004873365, -0.06230825558, -0.04581489414, -0.04413501546, -0.08170322329, -0.1389718503, -0.2012801021, -0.2525927722, -0.3249803185, -0.3958406746, -0.4071416855, -0.3506366611, -0.2264782935, -0.1067487001, -0.09529497474, -0.1264491081, -0.1942551434, -0.2895501256, -0.3900374472, -0.4369213581, -0.4419609904, -0.4376849532, -0.4297437072, -0.4257730842, -0.4243986309, -0.4411974251, -0.4489859641, -0.4528038502, -0.4918992519, -0.5852088928, -0.7673994899, -0.8797986507, -0.9506590366, -1.107193232, -1.488525867, -1.687057137, -1.499063253, -1.308167934, -1.120479584, -1.128573537, -1.193630695, -1.142012596, -1.03404212, -0.9859365225, -1.203251839, -1.571298122, -1.815644264, -1.926974416, -2.103209019, -1.951256275, -1.7096591, -1.621541739, -1.629482985, -1.471574426, -1.317636371, -1.291063666, -1.319927096, -1.366505504, -1.334893227, -1.311833143, -1.406669974, -1.450652242, -1.47753036, -1.40331018, -1.268003583, -1.048092008, -0.8432994485, -0.8167268038, -1.10108459, -1.833817482, -2.404670954, -2.480418444, -2.497980595, -2.572048187, -2.605645657, -2.599689722, -2.473546028, -2.275167704, -2.044718742]"
1,3,falling,3_falling,125,9.513885493,12.00388549,"[-1.642672777, -1.685145378, -1.737787485, -1.695314884, -1.628315806, -1.488933921, -1.402792215, -1.359721422, -1.316650629, -1.316650629, -1.259222865, -1.2352947, -1.125224829, -1.049252748, -1.006181955, -0.9631111026, -0.9577272534, -1.0863415, -1.210768223, -1.301695466, -1.329811215, -1.238883972, -1.191027522, -1.272383451, -1.253839016, -1.219741344, -1.50269258, -1.942971945, -2.330011129, -2.687737942, -2.811566591, -2.687737942, -2.335394859, -1.622931957, -1.456032634, -1.581057549, -1.704886079, -1.880758643, -1.57028985, -1.456032634, -1.441675663, -1.259821177, -1.115055323, -1.057029366, -1.157527924, -1.425524116, -1.592423439, -1.677966833, -1.586441398, -1.681556106, -1.610369682, -1.80658114, -1.758724689, -1.615155339, -1.486541033, -1.335195065, -1.631905079, -2.127817631, -2.676970243, -2.413759947, -1.654038668, -0.8219345808, -0.1860419661, 0.2153540403, 0.2057827413, -0.06161518395, -0.166301176, -0.1992024779, -0.3326023519, -0.418743968, -0.4761717021, 0.05024927482, 0.3714857101, 0.4019941986, -0.1974078715, -0.4528416991, -0.3020938635, -0.1938186288, -0.07597211748, 0.4941178858, 2.575275421, 2.267797709, 0.5599204898, 2.015354872, 3.119642496, 4.031308174, 3.112463951, 1.13419795, 2.035095692, 5.689534187, 10.72702408, 14.1930275, 13.06182098, 11.42752266, 11.77328587, 6.929016113, 3.805186272, 3.727419376, 4.621138573, 5.212165833, 5.717649937, 6.904489517, 7.350152969, 8.124231339, 8.614161491, 8.452047348, 8.772088051, 8.234899521, 8.074580193, 7.627122402, 6.965506554, 6.552146435, 6.958328247, 8.721240044, 12.10469151, 15.15075493, 13.71565914, 11.27498055, 9.784850121, 8.478368759, 6.053841114, 4.48833704, 2.447259426, 0.9020941257, 0.07238288224, -0.2500499785, -0.5431707501, -0.8596215248, -0.8644071817, -0.6400800347, -0.2237289101, 1.019940615, 1.378265858, 2.005185366, 2.933002472, 3.785445452, 4.365106583, 4.804787636, 5.240281582, 5.823532104, 5.827719688, 5.693721294, 5.770291805, 5.740979671, 5.276174068, 5.085346222, 5.167300701, 5.41136837, 5.454439163, 4.679164886, 4.028316975, 3.953541279, 3.908077478, 3.900899172, 3.917648792, 3.489931822, 2.931805849, 3.10408926, 3.566502094, 3.765704632, 3.960719585, 3.873381615, 2.592025042, 1.268794179, 0.3714857101, -1.344766378, -2.950948477, -3.442673683, -3.3852458, -2.453241348, -1.300499082, 0.1292124242, 1.403390527, 2.79421854, 3.704687595, 5.416153908, 6.916453838, 7.975277901, 8.652446747, 8.422736168, 4.653441906, 0.8075776696, -2.176870346, -3.606581926, -4.315455437, -4.083351612, -2.553141832, -1.771286964, -1.162313581, -0.7812566161, -0.4911268353, -0.2027917206, 0.3242274821, 1.329213023, 2.362912416, 3.7710886, 4.772484779, 4.932205677, 5.009374142, 5.178068161, 5.546562672, 5.78584528, 5.839085579, 6.164509296, 6.217749596, 6.494120598, 6.671189308, 6.588637352, 6.937989235, 7.311867714, 7.686942577, 9.139984131, 9.766305923, 5.799603939, 1.625923038, -1.534397483, -1.791625977, -2.282752752, -0.8847461939, -0.8668000102, -0.5814558864, 0.9840483069, 0.9966106415, 0.7214360237, -0.03110669367, -0.6173482537, -1.193420291, -0.394217521, 0.3050848842, 1.02711916, 1.77846539, 2.482553482, 2.167299032, 1.65164578, 1.614557028, 1.712662816, 1.63788712, 1.433300734, 0.5916253924, 0.8039883971, 0.7274180651, 1.182652593, 1.579861164, 2.020140409, 2.37786746, 2.587837696, 2.658426046, 2.7577281, 2.790031195, 2.879163742]","[-9.788438797, -9.812965393, -9.769296646, -9.65444088, -9.587442398, -9.660423279, -9.722636223, -9.660423279, -9.598209381, -9.57906723, -9.655637741, -9.594022751, -9.493523598, -9.445667267, -9.4307127, -9.527023315, -9.68674469, -9.597013474, -9.44865799, -9.234500885, -9.001200676, -8.824729919, -8.748159409, -8.919844627, -9.139386177, -9.469595909, -9.506086349, -9.504291534, -9.376275063, -9.299705505, -9.072386742, -8.739784241, -8.896514893, -9.459425926, -9.777072906, -9.93918705, -10.01755238, -10.20778179, -9.642477036, -8.890532494, -8.594420433, -8.504091263, -8.803194046, -8.676973343, -8.648259163, -8.891729355, -9.036494255, -8.781061172, -8.397012711, -8.073383331, -7.52722168, -7.535596848, -7.41176796, -6.991827965, -6.789036274, -6.425925255, -7.055835724, -7.891529083, -8.463413239, -8.062616348, -7.558926582, -7.166503906, -6.887740135, -6.649055958, -6.256632805, -6.019743443, -5.763113499, -5.331208706, -5.017150879, -5.226522923, -5.74636364, -6.087340832, -5.967101574, -5.806782246, -5.766702652, -6.054439545, -7.395616531, -9.309874535, -10.32084274, -9.208179474, -8.490332603, -8.484351158, -9.34815979, -8.206783295, -6.684350014, -3.785445452, -1.152144074, -3.900899172, -3.966103554, -2.863012314, -2.488535643, -0.8949156404, -0.8147560954, -1.345962763, -1.568495274, -1.684547186, -1.365105271, -1.20717907, 0.9343972206, 2.106282234, 3.142374277, 3.210569859, 3.410370588, 5.315655708, 3.792025566, 2.36650157, 2.23130703, 3.311666489, 2.967698336, 2.938984394, 3.232105255, 3.721437454, 4.348356724, 5.344369411, 7.098906517, 8.892925262, 9.687342644, 10.91186905, 11.51186943, 11.35573769, 9.847661972, 8.770293236, 7.877171993, 7.29631424, 7.016354084, 6.7704916, 6.428916454, 6.192026615, 6.46421051, 6.790830612, 6.703492641, 6.339783669, 6.493522644, 6.537191391, 6.631109715, 6.717849731, 6.620342255, 6.309873104, 5.985047817, 5.904888153, 5.403591633, 5.112864017, 5.056632519, 5.487938881, 6.303293228, 6.970890522, 7.623532772, 7.960322857, 8.070392609, 7.647460938, 6.912864685, 6.1429739, 6.005984783, 5.74337244, 5.900700569, 5.828916073, 4.762913704, 3.873381615, 3.955335855, 4.84546566, 6.57966423, 8.060222626, 8.37428093, 8.416155815, 6.660421848, 4.689932346, 3.004786968, 1.549352646, 0.8608179688, -0.05503492057, -1.100698471, -1.372882009, -0.9589236975, -0.457029134, -0.3505485058, -2.882753134, -5.712863922, -9.978070259, -12.56770229, -13.6289196, -12.54676533, -9.669994354, -5.903691769, -2.959323406, -1.32263267, -1.503889084, 2.078166485, 3.249453068, 3.503092289, 3.595814228, 3.167499065, 2.416750908, 1.45782721, 1.010967612, 0.8991031051, 0.8195417523, 0.02033899166, -0.4402793646, -0.7118647099, -1.102493048, -1.265803218, -1.266999602, -0.9391828775, -0.3248256743, 1.241276741, 1.396211982, 0.8620143533, 1.204786181, 1.334596872, 1.584048629, 1.317248821, 1.256830096, 0.8572286963, -0.8835497499, -1.456032634, -3.123231649, -2.558525562, -1.1820544, -0.2003988922, 1.660618901, 2.225325108, 1.974078655, 2.334198475, 2.455634356, 2.535195589, 2.430509567, 2.670390129, 1.677966833, 0.7812566161, 0.456430912, 0.1345962733, -0.3595215976, -0.6334998012, -0.6323033571, -0.5790630579, -0.584446907, -0.4001995921, -0.1304088384, 0.2506481707, 0.9595218897, 1.01036942, 0.8213363886, 0.6011967063, 0.3433700502, 0.1920240223, 0.1704886109, 0.1471585929, 0.2261217386, 0.4462614357, 0.7537391186]","[1.116850019, 1.150349498, 1.135992527, 1.136590719, 1.147358418, 1.300499082, 1.362712502, 1.310668588, 1.383051515, 1.354337573, 1.397408366, 1.435693622, 1.508674622, 1.451845169, 1.409372568, 1.499701619, 1.791027784, 1.948953986, 1.963909149, 2.132004976, 2.248655081, 2.369492531, 2.399402857, 2.277967215, 2.204986095, 2.236690998, 1.880758643, 1.510469317, 1.725225091, 2.428116798, 2.721237659, 2.398206472, 1.541576028, 1.262812138, 0.8877372146, 0.733400166, 1.009771109, 1.51106751, 1.47756803, 1.405783296, 1.484746456, 1.615155339, 2.078166485, 2.529213428, 2.543570518, 2.378465652, 2.57766819, 3.048455954, 3.611367464, 3.895515203, 3.745963812, 3.525225878, 3.707678795, 3.907479286, 3.569493294, 2.925823927, 2.599801779, 3.028116941, 3.333800077, 3.5766716, 3.486940861, 3.583850145, 3.454039574, 3.643670797, 3.602992773, 4.000799656, 4.294518471, 4.857429981, 5.102694511, 4.895116806, 4.642673969, 4.829314232, 5.520840168, 6.69511795, 8.594420433, 10.16710377, 11.14516926, 9.658628464, 8.288139343, 6.47796917, 4.512863636, 3.486940861, 2.952743053, 4.287340164, 7.293921471, 12.96132183, 18.72084618, 18.73879242, 20.10688782, 20.98505402, 19.89572144, 14.30728436, 9.783055305, 10.31904793, 13.75693512, 16.40519142, 18.46840286, 17.61655807, 15.19203091, 11.58126163, 8.242675781, 5.925227165, 3.859622955, 3.903291941, 5.015954494, 4.886742115, 4.350749969, 3.695116282, 2.049452543, 0.5347958803, -0.4863412082, -1.499701619, -1.436890006, -2.041077614, -2.860021353, -2.338984251, 0.5096712112, 2.605783939, 3.652643681, 3.143570662, 5.198407173, 6.626324177, 6.790232658, 6.12921524, 4.869992256, 3.588635683, 2.354537487, 1.920838356, 1.984846354, 1.858624935, 2.099103689, 2.221137524, 2.166102648, 2.201995134, 2.580060959, 3.345165968, 3.725026608, 3.729214191, 3.643072367, 3.519842148, 3.296711445, 3.093321562, 2.96889472, 2.851646423, 2.553141832, 2.858226538, 3.375076294, 3.818944931, 3.833899975, 3.282354355, 2.844467878, 3.471387386, 4.734199524, 6.150152206, 7.702496052, 9.141778946, 9.664610863, 9.58265686, 8.785248756, 8.112266541, 7.865208149, 7.572685242, 7.665407181, 8.436494827, 8.934201241, 8.507680893, 8.414361, 8.408378601, 8.365905762, 7.999206066, 7.771887779, 7.823931694, 9.177073479, 11.65125179, 13.10668564, 14.98385525, 16.1258297, 16.4279232, 20.39821434, 25.46142769, 24.8985157, 22.03849411, 17.16192245, 12.25723362, 9.162117958, 7.600800991, 5.919843197, 4.709673405, 3.233899832, 2.225325108, 1.15094769, 1.884945989, 2.187638044, 2.595614433, 3.034697294, 4.413561344, 5.350949764, 6.291927338, 6.826723099, 7.323233604, 7.509873867, 7.716853142, 8.063812256, 8.658429146, 9.204590797, 8.981459618, 8.710473061, 8.238488197, 8.188239098, 8.875576973, 10.25444126, 12.43848991, 15.18724537, 18.95294952, 21.96491623, 21.78365898, 19.52124596, 15.21895027, 10.70070267, 7.829914093, 4.061218262, 2.413759947, 1.424327731, 2.59740901, 4.304687977, 5.690132141, 6.991827965, 7.405188084, 7.809575081, 7.752745152, 8.041080475, 8.365905762, 8.506484032, 8.940781593, 9.68315506, 11.23968601, 12.43250847, 12.83091354, 13.03609753, 11.47119141, 11.68654537, 12.11306667, 12.20877934, 12.14656639, 11.89831066, 11.53041458, 10.70668507, 10.32921696, 9.57906723, 8.690732002]","[0.2790127099, 0.3124575615, 0.3436116874, 0.3747658134, 0.3972151279, 0.4366159439, 0.4746423066, 0.511752367, 0.5377141237, 0.5739079118, 0.6174320579, 0.6717990637, 0.72356987, 0.7544185519, 0.7783950567, 0.8013024926, 0.8310821652, 0.8397870064, 0.8397870064, 0.8516988754, 0.8657487631, 0.8784242272, 0.893848598, 0.9358455539, 1.003651619, 1.065807104, 1.087950945, 1.089630842, 1.083674908, 1.12842083, 1.197448611, 1.226311922, 1.247692227, 1.245401502, 1.186452985, 1.13407135, 1.126435518, 1.172097683, 1.205084443, 1.194241524, 1.137278318, 1.078024387, 1.053284407, 1.055269718, 1.079856992, 1.129184365, 1.140027285, 1.130558848, 1.13819468, 1.159116745, 1.175762892, 1.18049705, 1.169348836, 1.184009552, 1.225090265, 1.307251573, 1.409418821, 1.482111812, 1.520901799, 1.517083883, 1.48684597, 1.450041413, 1.382998943, 1.333976984, 1.297019601, 1.27075243, 1.256397128, 1.220966935, 1.152397275, 1.075886369, 0.9815077186, 0.7973318696, 0.5595525503, 0.2333505303, -0.02351831272, 0.04963280261, 0.4476115108, 0.7829765081, 0.9801332951, 1.186147571, 1.386205912, 1.443780065, 1.404684663, 1.36100781, 1.224784851, 1.297477722, 1.934457541, 2.538145065, 3.067001581, 3.826001644, 4.165948391, 4.047134876, 3.637397051, 2.77256465, 1.8875736, 1.608713627, 1.897958279, 2.176512957, 2.588846922, 3.077386379, 3.317303658, 3.154049873, 2.655125856, 2.200031281, 2.008372307, 2.079385281, 2.279290915, 2.419942617, 2.498438835, 2.543031931, 2.557081938, 2.565328598, 2.585639954, 2.568993807, 2.455983639, 2.250580311, 2.257757902, 2.513557673, 2.542726517, 2.353358269, 2.131767035, 1.96698606, 1.824349046, 1.709506392, 1.481348276, 1.211498499, 0.9552405477, 0.7898487449, 0.6385068893, 0.4787656367, 0.2744311988, -0.01588249579, -0.2739730477, -0.5882632136, -0.8620835543, -1.03556931, -1.105971575, -1.179428101, -1.273195863, -1.345125318, -1.36925447, -1.378417373, -1.402699351, -1.426217675, -1.51005888, -1.598328948, -1.703092337, -1.819920301, -1.877647042, -1.995391369, -2.212706566, -2.544864655, -2.814714432, -3.013550997, -3.076622725, -2.914438009, -2.626262426, -2.369393587, -2.213775635, -2.09389329, -2.195755005, -2.457663536, -2.748130083, -2.86281991, -2.888323545, -2.747977257, -2.603660345, -2.612365246, -2.662608862, -2.684752703, -2.658027411, -2.671313763, -2.768594027, -2.832123995, -2.604729414, -2.02578187, -1.473865151, -0.8910996914, -0.113926366, 1.117883444, 1.973552942, 2.488054037, 2.493704557, 2.311666727, 2.116495371, 1.8767308, 1.571145415, 1.31045866, 1.133765936, 1.022893906, 0.8410087228, 0.5542075038, 0.1753183305, -0.224187538, -0.5148066878, -0.8442157507, -1.068403363, -1.131475091, -1.109636664, -1.03969264, -0.9830349088, -0.9457721114, -0.908356607, -0.8614727259, -0.8877398968, -0.9016370773, -0.8915578127, -0.8469646573, -0.755182147, -0.6716463566, -0.6346889734, -0.5726861954, -0.3909537494, 0.0270307865, 0.735481739, 1.392925501, 1.720654726, 1.85046351, 1.669342041, 1.320537925, 0.955698669, 0.4980078936, 0.04214970022, -0.3594942093, -0.6044511795, -0.786641717, -0.7903069258, -0.6565274, -0.4839579761, -0.3804163337, -0.3307835162, -0.405461818, -0.5196936131, -0.5871942043, -0.5661193728, -0.4399756789, -0.2362521291, -0.0201585535, 0.09162978828, 0.1010981947, 0.0719293803, 0.07131851465, 0.1233947799, 0.184939459, 0.2295326144, 0.2490803003, 0.2434297949, 0.2616030276, 0.2732094824, 0.2419026345]","[-0.169056952, -0.1957823038, -0.2371684313, -0.2809980214, -0.3164281845, -0.3220787048, -0.3217732608, -0.3446807265, -0.3663664162, -0.4163046777, -0.4648684561, -0.4949535728, -0.5079344511, -0.5320636034, -0.5928447247, -0.6733261943, -0.7023423314, -0.7058547735, -0.7070765495, -0.6690501571, -0.6125451326, -0.5351179838, -0.4918992519, -0.5097670555, -0.5395467281, -0.499535054, -0.5028948188, -0.5445863605, -0.5595525503, -0.4870123267, -0.3932445049, -0.3488040566, -0.3915646076, -0.413403064, -0.5145012736, -0.6658431292, -0.8659014702, -1.004262447, -1.103222609, -1.120479584, -1.074512005, -1.047786593, -1.037707329, -1.001819015, -1.006247759, -1.030224204, -1.000749946, -0.9263771176, -0.829554975, -0.7250970602, -0.669508338, -0.660498023, -0.6615670323, -0.653778553, -0.7154759169, -0.9286679029, -1.183704138, -1.309542418, -1.374752283, -1.350928545, -1.275333881, -1.176221013, -1.114065528, -1.127504468, -1.225548387, -1.305266261, -1.335962296, -1.242041707, -1.148426652, -1.107651353, -1.129489779, -1.127810001, -1.055575132, -0.9695958495, -0.8399397135, -0.6864598393, -0.3733913898, -0.2857322097, -0.2426662147, -0.2223549485, -0.2364048511, -0.1218676195, -0.1356120855, -0.2890919745, -0.3909537494, -0.7493789196, -0.8535314798, -0.8078693151, -1.219439745, -2.036319256, -2.591595888, -3.208875179, -3.598149061, -3.451388597, -2.694068432, -2.2186625, -2.146885872, -2.247220516, -2.449875116, -2.664747, -2.809980154, -2.694373846, -2.320829868, -1.791056871, -1.218370676, -0.9702067375, -0.8423831463, -0.793972075, -0.7843509912, -0.8283332586, -0.8608618379, -0.8191702962, -0.4141666293, 0.208305046, 0.6536257863, 0.983951211, 0.6218608022, 0.4694499373, 0.6108652353, 0.3995058835, 0.00244346098, -0.07773260027, -0.04948008433, 0.01435533352, 0.125838235, 0.2260201424, 0.1979203373, 0.06536258012, -0.1177442744, -0.3257438838, -0.3677408695, -0.3074179292, -0.2755002379, -0.2652682364, -0.2457205504, -0.09865473956, 0.05222897977, 0.1554652005, 0.1898263693, 0.2591595948, 0.326507479, 0.3721696436, 0.4547891617, 0.5839871764, 0.609185338, 0.7026477456, 0.8513934612, 0.986700058, 1.087034702, 1.083064079, 0.9746354818, 0.9283624291, 1.027475357, 1.14491415, 1.291216373, 1.514793038, 1.663844228, 1.642311215, 1.544725537, 1.361313224, 1.347416043, 1.480431914, 1.42805028, 1.348790407, 1.320232511, 1.049619198, 0.669508338, 0.3631593883, 0.05558873713, -0.2527455091, -0.424856782, -0.5652030706, -0.5380195379, -0.3373503387, -0.2579378486, -0.0004581489484, 0.374002248, 0.492051959, 0.5725334287, 0.1832595766, -0.1562287807, -0.1411098689, 0.03588833287, -0.1513418704, -0.2538145185, -0.1006400511, 0.1229366288, 0.1695151031, -0.05345070735, -0.3576616049, -0.7913759351, -0.9546296597, -0.9865473509, -0.9314168096, -0.8611672521, -0.6044511795, -0.4355469346, -0.4039346576, -0.4928155243, -0.6007859707, -0.6279694438, -0.5485569835, -0.3859141171, 0.0262672063, 0.5094616413, 0.8672759533, 0.9546296597, 0.8147414923, 0.6357579827, 0.6430884004, 0.8481863737, 0.999833703, 1.083064079, 1.039081812, 0.936609149, 0.9074403048, 1.146899462, 1.630857468, 1.692707539, 1.705688477, 1.058476806, 0.02382374369, -0.8530732989, -1.297172308, -1.242041707, -0.8503243923, -0.2933680415, 0.03817907721, 0.2055561543, 0.1736384481, 0.1142318025, 0.2057088763, 0.2115120888, 0.1111774743, -0.02229658142, 0.003817907767, 0.1250746548, 0.1215621829, 0.2292271852, 0.03649919853, -0.2067778856, -0.1542434692, -0.08872817457, -0.1004873365, -0.1392772794, -0.1281289905, -0.1637118906, -0.1440114826, -0.09101892263, -0.0262672063]","[0.06414084882, 0.08109235764, 0.09789115191, 0.1134682223, 0.1241583601, 0.1313360333, 0.130114302, 0.1348485053, 0.1383609772, 0.1466076523, 0.1559233516, 0.1631010175, 0.1592831165, 0.1430951804, 0.1146899462, 0.08124507964, 0.06154467165, 0.05910121277, 0.06398813426, 0.0726929605, 0.07544185966, 0.06963863969, 0.05161811411, 0.02947424725, 0.01572977938, -0.009773843922, -0.0232128799, -0.01130100712, 0.01786780916, 0.06582073122, 0.1078177169, 0.120187737, 0.1137736514, 0.07941248268, 0.05100724846, 0.05146539584, 0.07971791178, 0.1472185254, 0.1588249654, 0.1490511149, 0.1322523206, 0.05436700583, -0.03833179548, -0.09789115191, -0.1273654103, -0.1250746548, -0.1004873365, -0.06230825558, -0.04581489414, -0.04413501546, -0.08170322329, -0.1389718503, -0.2012801021, -0.2525927722, -0.3249803185, -0.3958406746, -0.4071416855, -0.3506366611, -0.2264782935, -0.1067487001, -0.09529497474, -0.1264491081, -0.1942551434, -0.2895501256, -0.3900374472, -0.4369213581, -0.4419609904, -0.4376849532, -0.4297437072, -0.4257730842, -0.4243986309, -0.4411974251, -0.4489859641, -0.4528038502, -0.4918992519, -0.5852088928, -0.7673994899, -0.8797986507, -0.9506590366, -1.107193232, -1.488525867, -1.687057137, -1.499063253, -1.308167934, -1.120479584, -1.128573537, -1.193630695, -1.142012596, -1.03404212, -0.9859365225, -1.203251839, -1.571298122, -1.815644264, -1.926974416, -2.103209019, -1.951256275, -1.7096591, -1.621541739, -1.629482985, -1.471574426, -1.317636371, -1.291063666, -1.319927096, -1.366505504, -1.334893227, -1.311833143, -1.406669974, -1.450652242, -1.47753036, -1.40331018, -1.268003583, -1.048092008, -0.8432994485, -0.8167268038, -1.10108459, -1.833817482, -2.404670954, -2.480418444, -2.497980595, -2.572048187, -2.605645657, -2.599689722, -2.473546028, -2.275167704, -2.044718742, -1.858099341, -1.725999713, -1.601841331, -1.386511445, -1.113912821, -0.8013024926, -0.555123806, -0.4079052806, -0.2364048511, -0.1076650023, 0.001985311974, 0.06154467165, 0.09651670605, 0.1065959856, 0.0728456825, 0.03298672289, -0.03390302137, -0.1762346178, -0.3013092875, -0.3523165286, -0.3735440969, -0.4214970171, -0.5267185569, -0.6139195561, -0.562454164, -0.468686372, -0.2999348342, -0.1438587606, -0.05619960278, -0.04062253982, -0.006872233935, -0.009010262787, -0.0155770639, -0.02855795063, -0.09453139454, -0.2128865421, -0.4179845452, -0.598495245, -0.6927211881, -0.9149234295, -0.9007207751, -0.6039929986, -0.2015855312, 0.330478102, 0.8196284175, 1.170112371, 1.256091714, 1.241736293, 1.200197458, 1.040303469, 0.6488916278, 0.3263547719, -0.1036943719, -0.6991352439, -1.20264101, -1.270599723, -0.9845620394, -0.6160575747, -0.37751472, -0.2067778856, -0.007788531948, 0.1684460938, 0.310777694, 0.3868304193, 0.4158465266, 0.4456261992, 0.5600107312, 0.7057020664, 0.7799221873, 0.7942775488, 0.7144069076, 0.5593998432, 0.4657847583, 0.4053090811, 0.342389971, 0.2664899528, 0.1802052408, 0.09666942805, -0.07086037099, -0.3648392558, -0.5887213945, -0.6188064814, -0.5146539807, -0.3216205537, -0.1606575549, -0.1583668143, -0.4115704596, -0.8790351152, -0.955698669, -0.7583891749, -0.3605632186, -0.2292271852, -0.1255328059, -0.1492038369, -0.0972802937, 0.03420845419, 0.2148718536, 0.2428189367, 0.169056952, 0.1136209369, 0.08552113175, 0.01160643995, -0.04184427112, -0.03023782931, -0.04764748737, -0.06887505949, -0.1353066564, -0.07773260027, -0.01221730467, -0.01420261711, -0.0313068442, -0.05787948146, -0.08643743396, -0.04810563847, 0.01053742506, 0.0545197241, 0.07681630552, 0.09529497474, 0.1159116775, 0.1253800988, 0.1363756657, 0.149661988, 0.157145083, 0.137750119, 0.09911288321]"
2,3,falling,3_falling,250,10.76388549,13.25388549,"[-0.2500499785, -0.5431707501, -0.8596215248, -0.8644071817, -0.6400800347, -0.2237289101, 1.019940615, 1.378265858, 2.005185366, 2.933002472, 3.785445452, 4.365106583, 4.804787636, 5.240281582, 5.823532104, 5.827719688, 5.693721294, 5.770291805, 5.740979671, 5.276174068, 5.085346222, 5.167300701, 5.41136837, 5.454439163, 4.679164886, 4.028316975, 3.953541279, 3.908077478, 3.900899172, 3.917648792, 3.489931822, 2.931805849, 3.10408926, 3.566502094, 3.765704632, 3.960719585, 3.873381615, 2.592025042, 1.268794179, 0.3714857101, -1.344766378, -2.950948477, -3.442673683, -3.3852458, -2.453241348, -1.300499082, 0.1292124242, 1.403390527, 2.79421854, 3.704687595, 5.416153908, 6.916453838, 7.975277901, 8.652446747, 8.422736168, 4.653441906, 0.8075776696, -2.176870346, -3.606581926, -4.315455437, -4.083351612, -2.553141832, -1.771286964, -1.162313581, -0.7812566161, -0.4911268353, -0.2027917206, 0.3242274821, 1.329213023, 2.362912416, 3.7710886, 4.772484779, 4.932205677, 5.009374142, 5.178068161, 5.546562672, 5.78584528, 5.839085579, 6.164509296, 6.217749596, 6.494120598, 6.671189308, 6.588637352, 6.937989235, 7.311867714, 7.686942577, 9.139984131, 9.766305923, 5.799603939, 1.625923038, -1.534397483, -1.791625977, -2.282752752, -0.8847461939, -0.8668000102, -0.5814558864, 0.9840483069, 0.9966106415, 0.7214360237, -0.03110669367, -0.6173482537, -1.193420291, -0.394217521, 0.3050848842, 1.02711916, 1.77846539, 2.482553482, 2.167299032, 1.65164578, 1.614557028, 1.712662816, 1.63788712, 1.433300734, 0.5916253924, 0.8039883971, 0.7274180651, 1.182652593, 1.579861164, 2.020140409, 2.37786746, 2.587837696, 2.658426046, 2.7577281, 2.790031195, 2.879163742, 2.839682341, 2.772084951, 2.647658348, 2.599801779, 2.303689957, 2.136790514, 2.123031855, 2.209173441, 2.16670084, 2.056631088, 1.880160451, 1.838286042, 1.948355794, 2.054238319, 2.12183547, 2.203789711, 2.231905222, 2.164308071, 1.963909149, 1.825723648, 1.850848317, 2.07098794, 1.788036704, 1.646860242, 1.163509965, 1.107278705, 1.00737834, 0.8877372146, 0.8590233326, 0.8536394835, 0.8626125455, 0.9529415965, 0.9672985673, 0.9625129104, 0.9002995491, 1.001396298, 1.097109199, 1.049252748, 0.9008977413, 0.8961120844, 0.8105686903, 0.8009973764, 0.8111668825, 0.6580262184, 0.9068797827, 0.9260223508, 1.069591761, 1.155733347, 1.208375454, 1.15094769, 1.073779106, 1.030708313, 1.107278705, 1.140778184, 1.126421213, 1.101894855, 1.073180914, 1.030110121, 0.9535398483, 0.9535398483, 0.8865407705, 0.9248259664, 1.088136077, 1.293918848, 1.538584948, 1.451845169, 1.236491084, 1.183848977, 1.169492126, 1.255633712, 1.32263267, 1.341775298, 1.369890928, 1.408774376, 1.427318692, 1.466202021, 1.44646132, 1.422533035, 1.37048912, 1.356132269, 1.365105271, 1.341177106, 1.355534077, 1.408774376, 1.518245935, 1.561316729, 1.566102386, 1.561316729, 1.508674622, 1.518245935, 1.570888042, 1.604387641, 1.59003067, 1.556531072, 1.518245935, 1.537388563, 1.527817249, 1.508674622, 1.518245935, 1.546959877, 1.556531072, 1.513460279, 1.441675663, 1.417747378, 1.436890006, 1.427318692, 1.44646132, 1.451246977, 1.49431777, 1.532602906, 1.613958836, 1.59003067, 1.54217422, 1.551745534, 1.537388563, 1.508674622, 1.499103427, 1.523031592, 1.54217422, 1.566102386, 1.575673699, 1.54217422, 1.508674622, 1.460818172, 1.436890006]","[6.7704916, 6.428916454, 6.192026615, 6.46421051, 6.790830612, 6.703492641, 6.339783669, 6.493522644, 6.537191391, 6.631109715, 6.717849731, 6.620342255, 6.309873104, 5.985047817, 5.904888153, 5.403591633, 5.112864017, 5.056632519, 5.487938881, 6.303293228, 6.970890522, 7.623532772, 7.960322857, 8.070392609, 7.647460938, 6.912864685, 6.1429739, 6.005984783, 5.74337244, 5.900700569, 5.828916073, 4.762913704, 3.873381615, 3.955335855, 4.84546566, 6.57966423, 8.060222626, 8.37428093, 8.416155815, 6.660421848, 4.689932346, 3.004786968, 1.549352646, 0.8608179688, -0.05503492057, -1.100698471, -1.372882009, -0.9589236975, -0.457029134, -0.3505485058, -2.882753134, -5.712863922, -9.978070259, -12.56770229, -13.6289196, -12.54676533, -9.669994354, -5.903691769, -2.959323406, -1.32263267, -1.503889084, 2.078166485, 3.249453068, 3.503092289, 3.595814228, 3.167499065, 2.416750908, 1.45782721, 1.010967612, 0.8991031051, 0.8195417523, 0.02033899166, -0.4402793646, -0.7118647099, -1.102493048, -1.265803218, -1.266999602, -0.9391828775, -0.3248256743, 1.241276741, 1.396211982, 0.8620143533, 1.204786181, 1.334596872, 1.584048629, 1.317248821, 1.256830096, 0.8572286963, -0.8835497499, -1.456032634, -3.123231649, -2.558525562, -1.1820544, -0.2003988922, 1.660618901, 2.225325108, 1.974078655, 2.334198475, 2.455634356, 2.535195589, 2.430509567, 2.670390129, 1.677966833, 0.7812566161, 0.456430912, 0.1345962733, -0.3595215976, -0.6334998012, -0.6323033571, -0.5790630579, -0.584446907, -0.4001995921, -0.1304088384, 0.2506481707, 0.9595218897, 1.01036942, 0.8213363886, 0.6011967063, 0.3433700502, 0.1920240223, 0.1704886109, 0.1471585929, 0.2261217386, 0.4462614357, 0.7537391186, 1.136590719, 1.368096352, 1.583450437, 1.549950838, 1.415354609, 1.231107235, 1.348953724, 0.9559326172, 0.5060819983, 0.07118647546, -0.02751746029, 0.05084748194, 0.1680957973, 0.3188436031, 0.3403790295, 0.2386840582, 0.1740778536, 0.1034895778, -0.05024927482, -0.1866401732, -0.4576273263, -0.8739784956, 0.1459621787, 0.613160789, 0.4199403822, 0.2949153781, 0.4797609448, 0.604187727, 0.7046862841, 0.8129615188, 0.8488538265, 0.7010970116, 0.6436693072, 0.6299105883, 0.4145565331, 0.561715126, 0.5802595019, 0.4133601189, 0.2219343036, 0.3984049559, 0.2590230405, 0.2243271172, 0.2033899277, -0.1824527234, 0.2602194548, 0.2644068897, 0.3122633696, 0.3026920557, 0.2973082066, 0.2452643216, 0.2805584669, 0.3445664644, 0.3397808075, 0.2961117923, 0.2769692242, 0.2404786795, 0.2793620527, 0.2829512656, 0.2596212626, 0.2596212626, 0.1878365725, 0.2021935135, 0.2871387303, 0.4151547253, 0.4749752879, 0.537786901, 0.4193421602, 0.2967100143, 0.2386840582, 0.3726821244, 0.4719842672, 0.5395814776, 0.5736792088, 0.5060819983, 0.5353940725, 0.5491527915, 0.5204389095, 0.4348955154, 0.3726821244, 0.3439682424, 0.2919243574, 0.3158525825, 0.3583251834, 0.3672982752, 0.3631108403, 0.4109672904, 0.4354937077, 0.4013960063, 0.3062812984, 0.3643072546, 0.4115654826, 0.5072783828, 0.5072783828, 0.4971089065, 0.4833501875, 0.4061816335, 0.4067798555, 0.3876372576, 0.4121637046, 0.4540380836, 0.4211367965, 0.4259224236, 0.4163511395, 0.3972085714, 0.4211367965, 0.3732803464, 0.4019941986, 0.4205385745, 0.4588237405, 0.4636093974, 0.4498506486, 0.4115654826, 0.3397808075, 0.3738785386, 0.3972085714, 0.4115654826, 0.4205385745, 0.4211367965, 0.4540380836, 0.4540380836, 0.4354937077, 0.4163511395, 0.4067798555, 0.3870390654, 0.3876372576]","[3.588635683, 2.354537487, 1.920838356, 1.984846354, 1.858624935, 2.099103689, 2.221137524, 2.166102648, 2.201995134, 2.580060959, 3.345165968, 3.725026608, 3.729214191, 3.643072367, 3.519842148, 3.296711445, 3.093321562, 2.96889472, 2.851646423, 2.553141832, 2.858226538, 3.375076294, 3.818944931, 3.833899975, 3.282354355, 2.844467878, 3.471387386, 4.734199524, 6.150152206, 7.702496052, 9.141778946, 9.664610863, 9.58265686, 8.785248756, 8.112266541, 7.865208149, 7.572685242, 7.665407181, 8.436494827, 8.934201241, 8.507680893, 8.414361, 8.408378601, 8.365905762, 7.999206066, 7.771887779, 7.823931694, 9.177073479, 11.65125179, 13.10668564, 14.98385525, 16.1258297, 16.4279232, 20.39821434, 25.46142769, 24.8985157, 22.03849411, 17.16192245, 12.25723362, 9.162117958, 7.600800991, 5.919843197, 4.709673405, 3.233899832, 2.225325108, 1.15094769, 1.884945989, 2.187638044, 2.595614433, 3.034697294, 4.413561344, 5.350949764, 6.291927338, 6.826723099, 7.323233604, 7.509873867, 7.716853142, 8.063812256, 8.658429146, 9.204590797, 8.981459618, 8.710473061, 8.238488197, 8.188239098, 8.875576973, 10.25444126, 12.43848991, 15.18724537, 18.95294952, 21.96491623, 21.78365898, 19.52124596, 15.21895027, 10.70070267, 7.829914093, 4.061218262, 2.413759947, 1.424327731, 2.59740901, 4.304687977, 5.690132141, 6.991827965, 7.405188084, 7.809575081, 7.752745152, 8.041080475, 8.365905762, 8.506484032, 8.940781593, 9.68315506, 11.23968601, 12.43250847, 12.83091354, 13.03609753, 11.47119141, 11.68654537, 12.11306667, 12.20877934, 12.14656639, 11.89831066, 11.53041458, 10.70668507, 10.32921696, 9.57906723, 8.690732002, 7.936394691, 7.616952896, 7.593622684, 7.627122402, 7.701299667, 7.99202776, 8.2701931, 8.397610664, 8.38923645, 8.32403183, 8.696115494, 9.160921097, 9.55035305, 10.01575756, 10.3848505, 10.53799057, 10.23589706, 9.976874352, 10.10907745, 10.38544846, 10.85803127, 10.92802143, 10.8424778, 9.561120987, 9.05563736, 9.820742607, 10.09890842, 10.09950638, 10.11924744, 9.611968994, 9.301499367, 9.195617676, 9.185447693, 9.128020287, 9.068798065, 9.285347939, 9.357730865, 9.279964447, 9.268598557, 9.375079155, 9.479166985, 9.627521515, 9.924231529, 9.581459999, 10.00139999, 10.15992451, 10.18923664, 10.18983555, 10.21854877, 10.12223816, 9.824930191, 9.562317848, 9.562317848, 9.691530228, 9.643673897, 9.437292099, 9.341579437, 9.470791817, 9.340981483, 9.340981483, 9.326025963, 9.412167549, 9.537791252, 9.83150959, 10.23529911, 10.11565781, 9.898509026, 9.638887405, 9.667003632, 9.735796928, 9.851250648, 9.784850121, 9.698708534, 9.780064583, 9.73699379, 9.847661972, 9.775279045, 9.745966911, 9.731011391, 9.750154495, 9.649057388, 9.610772133, 9.692726135, 9.774082184, 9.760323524, 9.713065147, 9.665208817, 9.693922997, 9.649655342, 9.544969559, 9.612566948, 9.651450157, 9.646664619, 9.704092026, 9.660423279, 9.756135941, 9.655637741, 9.635896683, 9.549755096, 9.713065147, 9.669994354, 9.631709099, 9.635896683, 9.635896683, 9.659825325, 9.606584549, 9.6693964, 9.731609344, 9.756135941, 9.751350403, 9.689735413, 9.650852203, 9.616754532, 9.578469276, 9.626325607, 9.655039787, 9.722636223, 9.655637741, 9.703494072, 9.70827961, 9.67956543, 9.650852203, 9.6693964, 9.678967476, 9.626325607]","[1.211498499, 0.9552405477, 0.7898487449, 0.6385068893, 0.4787656367, 0.2744311988, -0.01588249579, -0.2739730477, -0.5882632136, -0.8620835543, -1.03556931, -1.105971575, -1.179428101, -1.273195863, -1.345125318, -1.36925447, -1.378417373, -1.402699351, -1.426217675, -1.51005888, -1.598328948, -1.703092337, -1.819920301, -1.877647042, -1.995391369, -2.212706566, -2.544864655, -2.814714432, -3.013550997, -3.076622725, -2.914438009, -2.626262426, -2.369393587, -2.213775635, -2.09389329, -2.195755005, -2.457663536, -2.748130083, -2.86281991, -2.888323545, -2.747977257, -2.603660345, -2.612365246, -2.662608862, -2.684752703, -2.658027411, -2.671313763, -2.768594027, -2.832123995, -2.604729414, -2.02578187, -1.473865151, -0.8910996914, -0.113926366, 1.117883444, 1.973552942, 2.488054037, 2.493704557, 2.311666727, 2.116495371, 1.8767308, 1.571145415, 1.31045866, 1.133765936, 1.022893906, 0.8410087228, 0.5542075038, 0.1753183305, -0.224187538, -0.5148066878, -0.8442157507, -1.068403363, -1.131475091, -1.109636664, -1.03969264, -0.9830349088, -0.9457721114, -0.908356607, -0.8614727259, -0.8877398968, -0.9016370773, -0.8915578127, -0.8469646573, -0.755182147, -0.6716463566, -0.6346889734, -0.5726861954, -0.3909537494, 0.0270307865, 0.735481739, 1.392925501, 1.720654726, 1.85046351, 1.669342041, 1.320537925, 0.955698669, 0.4980078936, 0.04214970022, -0.3594942093, -0.6044511795, -0.786641717, -0.7903069258, -0.6565274, -0.4839579761, -0.3804163337, -0.3307835162, -0.405461818, -0.5196936131, -0.5871942043, -0.5661193728, -0.4399756789, -0.2362521291, -0.0201585535, 0.09162978828, 0.1010981947, 0.0719293803, 0.07131851465, 0.1233947799, 0.184939459, 0.2295326144, 0.2490803003, 0.2434297949, 0.2616030276, 0.2732094824, 0.2419026345, 0.1656972021, 0.08109235764, -0.02382374369, -0.1182024255, -0.1734857261, -0.1722639948, -0.1734857261, -0.2035708427, -0.2406809032, -0.2796235681, -0.3019201458, -0.3020728528, -0.2762638032, -0.2298380435, -0.1951714456, -0.1539380401, -0.1348485053, -0.1295034289, -0.108123146, -0.07757988572, -0.05192354694, -0.04627304152, -0.03145955876, 0.05192354694, 0.1956295967, 0.1989893466, 0.1388191283, 0.0960585624, 0.04291328415, -0.03497203439, -0.09514226019, -0.1478293836, -0.1747074574, -0.1828014255, -0.1673770845, -0.1450804919, -0.1340849251, -0.1235474944, -0.1235474944, -0.1003346145, -0.05131268129, -0.02000583708, -0.005192354787, 0.008857546374, 0.03237585723, 0.03940080851, 0.03176499158, 0.02275473066, 0.03054326214, 0.04703662544, 0.05161811411, 0.02458732575, -0.01863138936, -0.05467243865, -0.05574145541, -0.006872233935, 0.04123340547, 0.05421429127, 0.05238169432, 0.05192354694, 0.05192354694, 0.07941248268, 0.09239336848, 0.08231408894, 0.04016438872, -0.004581489135, -0.002748893574, 0.02718350291, 0.07819075137, 0.09315694869, 0.08170322329, 0.05421429127, 0.03084869497, 0.04062253982, 0.05054909736, 0.05039638281, 0.03894266114, 0.02153299935, 0.0140499007, 0.01863138936, 0.01847867295, 0.003665191587, -0.01588249579, -0.01221730467, 0.009926560335, 0.01618792862, 0.01496619824, 0.0109955743, 0.02183843218, 0.02199114859, 0.004886921961, -0.01374446787, -0.01374446787, -0.003817907767, 0.006261368748, 0.009621127509, 0.00320704258, 0.0006108652451, -0.001527163084, -0.006566801574, -0.003970623948, -0.002748893574, -0.002748893574, -0.006414085161, -0.009010262787, -0.01267545391, -0.01740965992, -0.01389718428, -0.005345070735, 0.006872233935, 0.009315694682, 0.01420261711, 0.02290744707, 0.02183843218, 0.002290744567, -0.007635815535, -0.009010262787, -0.004123340361, -0.002748893574, -0.001527163084, 0.004581489135, 0.004734205548, -0.0001527163113, -0.001527163084, 0.007024950348]","[0.2260201424, 0.1979203373, 0.06536258012, -0.1177442744, -0.3257438838, -0.3677408695, -0.3074179292, -0.2755002379, -0.2652682364, -0.2457205504, -0.09865473956, 0.05222897977, 0.1554652005, 0.1898263693, 0.2591595948, 0.326507479, 0.3721696436, 0.4547891617, 0.5839871764, 0.609185338, 0.7026477456, 0.8513934612, 0.986700058, 1.087034702, 1.083064079, 0.9746354818, 0.9283624291, 1.027475357, 1.14491415, 1.291216373, 1.514793038, 1.663844228, 1.642311215, 1.544725537, 1.361313224, 1.347416043, 1.480431914, 1.42805028, 1.348790407, 1.320232511, 1.049619198, 0.669508338, 0.3631593883, 0.05558873713, -0.2527455091, -0.424856782, -0.5652030706, -0.5380195379, -0.3373503387, -0.2579378486, -0.0004581489484, 0.374002248, 0.492051959, 0.5725334287, 0.1832595766, -0.1562287807, -0.1411098689, 0.03588833287, -0.1513418704, -0.2538145185, -0.1006400511, 0.1229366288, 0.1695151031, -0.05345070735, -0.3576616049, -0.7913759351, -0.9546296597, -0.9865473509, -0.9314168096, -0.8611672521, -0.6044511795, -0.4355469346, -0.4039346576, -0.4928155243, -0.6007859707, -0.6279694438, -0.5485569835, -0.3859141171, 0.0262672063, 0.5094616413, 0.8672759533, 0.9546296597, 0.8147414923, 0.6357579827, 0.6430884004, 0.8481863737, 0.999833703, 1.083064079, 1.039081812, 0.936609149, 0.9074403048, 1.146899462, 1.630857468, 1.692707539, 1.705688477, 1.058476806, 0.02382374369, -0.8530732989, -1.297172308, -1.242041707, -0.8503243923, -0.2933680415, 0.03817907721, 0.2055561543, 0.1736384481, 0.1142318025, 0.2057088763, 0.2115120888, 0.1111774743, -0.02229658142, 0.003817907767, 0.1250746548, 0.1215621829, 0.2292271852, 0.03649919853, -0.2067778856, -0.1542434692, -0.08872817457, -0.1004873365, -0.1392772794, -0.1281289905, -0.1637118906, -0.1440114826, -0.09101892263, -0.0262672063, -0.03298672289, -0.0410806872, 0.01786780916, 0.104152523, 0.1145372316, 0.1134682223, 0.1065959856, 0.1543961912, 0.1835650057, 0.1548543423, 0.1679879427, 0.1837177277, 0.1815796942, 0.2044871449, 0.2835941911, 0.4375322461, 0.4893030524, 0.4453207552, 0.4062253833, 0.4259257913, 0.5557346344, 0.7131851912, 0.830776751, 0.6050620079, 0.149509266, 0.06856962293, 0.1794416606, 0.2744311988, 0.4207334518, 0.4786129296, 0.4780020416, 0.4627304375, 0.4465425014, 0.4085161388, 0.3462078869, 0.3233004212, 0.3211624026, 0.2623666227, 0.145538643, 0.04169155285, -0.05222897977, -0.1119410545, -0.1191187203, -0.1681406647, -0.1837177277, -0.1615738571, -0.1371392459, -0.09926560521, -0.02672535367, 0.03588833287, 0.06902777404, 0.06994406879, 0.09269879758, 0.1340849251, 0.1230893433, 0.02550362423, -0.1038470939, -0.1649336219, -0.2176207453, -0.2900082767, -0.2900082767, -0.4466952085, -0.5140430927, -0.4897612035, -0.3368921876, -0.1840231568, -0.1226311997, -0.1664607823, -0.2247984111, -0.2490803003, -0.2113593817, -0.1724167168, -0.1566869318, -0.1540907621, -0.1711949855, -0.1478293836, -0.1209513173, -0.1015563458, -0.09300423414, -0.06108652428, -0.03665191308, -0.03069597855, -0.03833179548, -0.03466660157, -0.04780020565, -0.05879577994, -0.06001751125, -0.03313944116, -0.004734205548, -0.02076941915, -0.0282525178, -0.0125227375, -0.01374446787, -0.01847867295, -0.04046982154, -0.02199114859, 0.01343903504, 0.0232128799, -0.002596177394, -0.002596177394, -0.002596177394, -0.006261368748, -0.009926560335, -0.01359175146, -0.003817907767, -0.005192354787, -0.007788531948, -0.002748893574, 0.007177666761, 0.0109955743, 0.01221730467, 0.0109955743, 0.0001527163113, -0.0171042271, -0.01970040426, -0.01130100712, 0.005955935922, 0.003512475174, -0.006261368748, -0.002596177394, -0.003817907767, -0.01481348183, -0.0160352122, -0.006261368748, -0.00244346098]","[-1.858099341, -1.725999713, -1.601841331, -1.386511445, -1.113912821, -0.8013024926, -0.555123806, -0.4079052806, -0.2364048511, -0.1076650023, 0.001985311974, 0.06154467165, 0.09651670605, 0.1065959856, 0.0728456825, 0.03298672289, -0.03390302137, -0.1762346178, -0.3013092875, -0.3523165286, -0.3735440969, -0.4214970171, -0.5267185569, -0.6139195561, -0.562454164, -0.468686372, -0.2999348342, -0.1438587606, -0.05619960278, -0.04062253982, -0.006872233935, -0.009010262787, -0.0155770639, -0.02855795063, -0.09453139454, -0.2128865421, -0.4179845452, -0.598495245, -0.6927211881, -0.9149234295, -0.9007207751, -0.6039929986, -0.2015855312, 0.330478102, 0.8196284175, 1.170112371, 1.256091714, 1.241736293, 1.200197458, 1.040303469, 0.6488916278, 0.3263547719, -0.1036943719, -0.6991352439, -1.20264101, -1.270599723, -0.9845620394, -0.6160575747, -0.37751472, -0.2067778856, -0.007788531948, 0.1684460938, 0.310777694, 0.3868304193, 0.4158465266, 0.4456261992, 0.5600107312, 0.7057020664, 0.7799221873, 0.7942775488, 0.7144069076, 0.5593998432, 0.4657847583, 0.4053090811, 0.342389971, 0.2664899528, 0.1802052408, 0.09666942805, -0.07086037099, -0.3648392558, -0.5887213945, -0.6188064814, -0.5146539807, -0.3216205537, -0.1606575549, -0.1583668143, -0.4115704596, -0.8790351152, -0.955698669, -0.7583891749, -0.3605632186, -0.2292271852, -0.1255328059, -0.1492038369, -0.0972802937, 0.03420845419, 0.2148718536, 0.2428189367, 0.169056952, 0.1136209369, 0.08552113175, 0.01160643995, -0.04184427112, -0.03023782931, -0.04764748737, -0.06887505949, -0.1353066564, -0.07773260027, -0.01221730467, -0.01420261711, -0.0313068442, -0.05787948146, -0.08643743396, -0.04810563847, 0.01053742506, 0.0545197241, 0.07681630552, 0.09529497474, 0.1159116775, 0.1253800988, 0.1363756657, 0.149661988, 0.157145083, 0.137750119, 0.09911288321, 0.06383541971, 0.04199698567, 0.01679879427, -0.0155770639, -0.02886338346, -0.04718934, -0.130114302, -0.1994474977, -0.2174680233, -0.2041817009, -0.1844813079, -0.1576032341, -0.1576032341, -0.2028072625, -0.2487748712, -0.2932153046, -0.3283400834, -0.3396410644, -0.3094032407, -0.2629774809, -0.1792889535, -0.06490442902, -0.01420261711, -0.04734205827, -0.06215553731, -0.0491746515, -0.03756821156, -0.02962696366, 0.0140499007, 0.03145955876, 0.03527746722, 0.03283400834, 0.02794708498, -0.003970623948, -0.00320704258, -0.03145955876, -0.06933320314, -0.05864306539, 0.009162978269, 0.008552113548, -0.001832595794, -0.003359758761, -0.001069014193, 0.02916881628, 0.01435533352, 0.01450804994, 0.0171042271, 0.01359175146, 0.005497787148, 0.0009162978968, 0.002290744567, 0.009621127509, 0.01359175146, 0.01634064503, 0.01007927675, -0.001527163084, -0.01206458826, -0.022143865, -0.02244929783, -0.0190895386, -0.0190895386, 0.00320704258, 0.01740965992, 0.02122756653, 0.01237002108, -0.001374446787, -0.01328631863, -0.01359175146, -0.01145372353, -0.007941247895, -0.004123340361, -0.005039638374, -0.001374446787, -0.002596177394, -0.007483099122, -0.01832595654, -0.02550362423, -0.02290744707, -0.01924225502, -0.01664607786, -0.0140499007, -0.001832595794, 0.007941247895, 0.01038470957, 0.005345070735, 0.002901609987, -0.0007635815418, -0.001832595794, 0.0007635815418, -0.0006108652451, 0.001832595794, 0.0007635815418, -0.00167987938, -0.005345070735, -0.004276056774, -0.005497787148, -0.006414085161, -0.0003054326226, 0.001985311974, -0.00167987938, -0.009010262787, -0.01023199316, -0.01023199316, -0.002901609987, -0.002901609987, 0.001985311974, 0.005650503561, 0.006872233935, 0.005803219974, 0.005803219974, 0.002138028387, 0.0009162978968, -0.00167987938, -0.001832595794, -0.0004581489484, 0.001985311974, 0.002138028387, 0.005650503561, 0.005650503561, 0.004428773187, -0.00167987938, -0.005345070735, -0.005345070735, -0.00167987938, -0.0004581489484]"
3,3,falling,3_falling,375,12.01388549,14.52911882,"[2.839682341, 2.772084951, 2.647658348, 2.599801779, 2.303689957, 2.136790514, 2.123031855, 2.209173441, 2.16670084, 2.056631088, 1.880160451, 1.838286042, 1.948355794, 2.054238319, 2.12183547, 2.203789711, 2.231905222, 2.164308071, 1.963909149, 1.825723648, 1.850848317, 2.07098794, 1.788036704, 1.646860242, 1.163509965, 1.107278705, 1.00737834, 0.8877372146, 0.8590233326, 0.8536394835, 0.8626125455, 0.9529415965, 0.9672985673, 0.9625129104, 0.9002995491, 1.001396298, 1.097109199, 1.049252748, 0.9008977413, 0.8961120844, 0.8105686903, 0.8009973764, 0.8111668825, 0.6580262184, 0.9068797827, 0.9260223508, 1.069591761, 1.155733347, 1.208375454, 1.15094769, 1.073779106, 1.030708313, 1.107278705, 1.140778184, 1.126421213, 1.101894855, 1.073180914, 1.030110121, 0.9535398483, 0.9535398483, 0.8865407705, 0.9248259664, 1.088136077, 1.293918848, 1.538584948, 1.451845169, 1.236491084, 1.183848977, 1.169492126, 1.255633712, 1.32263267, 1.341775298, 1.369890928, 1.408774376, 1.427318692, 1.466202021, 1.44646132, 1.422533035, 1.37048912, 1.356132269, 1.365105271, 1.341177106, 1.355534077, 1.408774376, 1.518245935, 1.561316729, 1.566102386, 1.561316729, 1.508674622, 1.518245935, 1.570888042, 1.604387641, 1.59003067, 1.556531072, 1.518245935, 1.537388563, 1.527817249, 1.508674622, 1.518245935, 1.546959877, 1.556531072, 1.513460279, 1.441675663, 1.417747378, 1.436890006, 1.427318692, 1.44646132, 1.451246977, 1.49431777, 1.532602906, 1.613958836, 1.59003067, 1.54217422, 1.551745534, 1.537388563, 1.508674622, 1.499103427, 1.523031592, 1.54217422, 1.566102386, 1.575673699, 1.54217422, 1.508674622, 1.460818172, 1.436890006, 1.44646132, 1.527817249, 1.537388563, 1.566102386, 1.585245013, 1.566102386, 1.556531072, 1.556531072, 1.518245935, 1.527817249, 1.537388563, 1.513460279, 1.470389485, 1.475175142, 1.436890006, 1.546959877, 1.566102386, 1.546959877, 1.54217422, 1.566102386, 1.518245935, 1.523031592, 1.63788712, 1.666600943, 1.613958836, 1.618744493, 1.609173179, 1.618744493, 1.609173179, 1.489532113, 1.49431777, 1.537388563, 1.580459356, 1.570888042, 1.599601984, 1.623530149, 1.613958836, 1.436890006, -2.746960402, -2.876172781, -2.895315409, -2.938386202, -2.952743053, -2.986242771, -3.010170937, -3.000599623, -2.976671457, -3.034099102, -3.029313564, -2.995813847, -2.919243574, -2.94317174, -2.995813847, -2.919243574, -2.876172781, -2.914458036, -2.876172781, -2.895315409, -2.857030153, -2.818745136, -2.804388046, -2.790031195, -2.818745136, -2.823530674, -2.785245657, -2.770888567, -2.847458839, -2.847458839, -2.857030153, -2.876172781, -2.895315409, -2.928814888, -2.962314367, -2.947957516, -2.947957516, -2.990430117, -3.01974225, -3.043670416, -3.014358282, -3.01974225, -3.05324173, -3.086741209, -3.120240688, -3.03888464, -2.95752883, -2.94317174, -2.914458036, -2.861815929, -2.847458839, -2.713460922, -2.684746981, -2.69850564, -2.736790895, -2.793620348, -2.81695056, -2.840878725, -2.740978241, -2.678765059, -2.722434044, -2.947359324, -2.981456995, -2.914458036, -2.885744095, -2.857628345, -2.594418049, -2.393420935, -2.120639086, -1.780858278, -1.828116536, -2.148156643, -2.568096876, -3.041277647, -3.288934708, -3.287738323, -2.756531715, -1.7138592, -0.8638089895, -0.8638089895, -1.663609982, -2.515454769, -3.299104214, -3.643072367, -4.050450325, -4.324428558, -4.807180882]","[1.136590719, 1.368096352, 1.583450437, 1.549950838, 1.415354609, 1.231107235, 1.348953724, 0.9559326172, 0.5060819983, 0.07118647546, -0.02751746029, 0.05084748194, 0.1680957973, 0.3188436031, 0.3403790295, 0.2386840582, 0.1740778536, 0.1034895778, -0.05024927482, -0.1866401732, -0.4576273263, -0.8739784956, 0.1459621787, 0.613160789, 0.4199403822, 0.2949153781, 0.4797609448, 0.604187727, 0.7046862841, 0.8129615188, 0.8488538265, 0.7010970116, 0.6436693072, 0.6299105883, 0.4145565331, 0.561715126, 0.5802595019, 0.4133601189, 0.2219343036, 0.3984049559, 0.2590230405, 0.2243271172, 0.2033899277, -0.1824527234, 0.2602194548, 0.2644068897, 0.3122633696, 0.3026920557, 0.2973082066, 0.2452643216, 0.2805584669, 0.3445664644, 0.3397808075, 0.2961117923, 0.2769692242, 0.2404786795, 0.2793620527, 0.2829512656, 0.2596212626, 0.2596212626, 0.1878365725, 0.2021935135, 0.2871387303, 0.4151547253, 0.4749752879, 0.537786901, 0.4193421602, 0.2967100143, 0.2386840582, 0.3726821244, 0.4719842672, 0.5395814776, 0.5736792088, 0.5060819983, 0.5353940725, 0.5491527915, 0.5204389095, 0.4348955154, 0.3726821244, 0.3439682424, 0.2919243574, 0.3158525825, 0.3583251834, 0.3672982752, 0.3631108403, 0.4109672904, 0.4354937077, 0.4013960063, 0.3062812984, 0.3643072546, 0.4115654826, 0.5072783828, 0.5072783828, 0.4971089065, 0.4833501875, 0.4061816335, 0.4067798555, 0.3876372576, 0.4121637046, 0.4540380836, 0.4211367965, 0.4259224236, 0.4163511395, 0.3972085714, 0.4211367965, 0.3732803464, 0.4019941986, 0.4205385745, 0.4588237405, 0.4636093974, 0.4498506486, 0.4115654826, 0.3397808075, 0.3738785386, 0.3972085714, 0.4115654826, 0.4205385745, 0.4211367965, 0.4540380836, 0.4540380836, 0.4354937077, 0.4163511395, 0.4067798555, 0.3870390654, 0.3876372576, 0.4307080805, 0.4450650215, 0.4594219327, 0.4642075896, 0.4546363056, 0.4402793646, 0.4019941986, 0.4019941986, 0.4737788737, 0.5066801906, 0.4683950245, 0.4205385745, 0.3541377485, 0.3254238665, 0.3302095234, 0.4013960063, 0.3966103494, 0.3966103494, 0.4348955154, 0.4594219327, 0.5413761139, 0.4791627228, 0.3888336718, 0.3541377485, 0.2919243574, 0.3110669553, 0.3014956415, 0.3391826153, 0.4295116663, 0.4588237405, 0.4881358147, 0.4444667995, 0.4630111754, 0.4444667995, 0.3876372576, 0.2727817893, 0.2829512656, 0.3792623878, -9.316454887, -9.301499367, -9.219545364, -9.25783062, -9.263215065, -9.210572243, -9.168100357, -9.177671432, -9.191430092, -9.220144272, -9.263215065, -9.238688469, -9.272188187, -9.262616158, -9.25783062, -9.25783062, -9.2865448, -9.291928291, -9.291928291, -9.320642471, -9.363713264, -9.330213547, -9.306285858, -9.287142754, -9.291928291, -9.273384094, -9.239884377, -9.330213547, -9.391828537, -9.348757744, -9.300901413, -9.27278614, -9.378668785, -9.407382011, -9.287740707, -9.249456406, -9.250054359, -9.321838379, -9.317052841, -9.317052841, -9.307481766, -9.312267303, -9.339784622, -9.354142189, -9.368498802, -9.324830055, -9.334999084, -9.382855415, -9.397212982, -9.449854851, -9.473783493, -9.459425926, -9.494122505, -9.504291534, -9.404989243, -9.311071396, -9.192625999, -9.087940216, -8.886942863, -8.794819832, -8.870193481, -8.96889782, -9.005986214, -8.981459618, -8.808578491, -8.544769287, -8.621937752, -8.397610664, -8.001599312, -7.664210796, -7.575676441, -7.572087288, -7.674380302, -7.706085205, -7.51346302, -7.479365349, -7.293323517, -7.136593342, -6.822535515, -6.801598549, -6.960123062, -7.275377274, -7.482954502, -7.215556622, -7.504489899, -7.328019142, -7.462017536]","[7.936394691, 7.616952896, 7.593622684, 7.627122402, 7.701299667, 7.99202776, 8.2701931, 8.397610664, 8.38923645, 8.32403183, 8.696115494, 9.160921097, 9.55035305, 10.01575756, 10.3848505, 10.53799057, 10.23589706, 9.976874352, 10.10907745, 10.38544846, 10.85803127, 10.92802143, 10.8424778, 9.561120987, 9.05563736, 9.820742607, 10.09890842, 10.09950638, 10.11924744, 9.611968994, 9.301499367, 9.195617676, 9.185447693, 9.128020287, 9.068798065, 9.285347939, 9.357730865, 9.279964447, 9.268598557, 9.375079155, 9.479166985, 9.627521515, 9.924231529, 9.581459999, 10.00139999, 10.15992451, 10.18923664, 10.18983555, 10.21854877, 10.12223816, 9.824930191, 9.562317848, 9.562317848, 9.691530228, 9.643673897, 9.437292099, 9.341579437, 9.470791817, 9.340981483, 9.340981483, 9.326025963, 9.412167549, 9.537791252, 9.83150959, 10.23529911, 10.11565781, 9.898509026, 9.638887405, 9.667003632, 9.735796928, 9.851250648, 9.784850121, 9.698708534, 9.780064583, 9.73699379, 9.847661972, 9.775279045, 9.745966911, 9.731011391, 9.750154495, 9.649057388, 9.610772133, 9.692726135, 9.774082184, 9.760323524, 9.713065147, 9.665208817, 9.693922997, 9.649655342, 9.544969559, 9.612566948, 9.651450157, 9.646664619, 9.704092026, 9.660423279, 9.756135941, 9.655637741, 9.635896683, 9.549755096, 9.713065147, 9.669994354, 9.631709099, 9.635896683, 9.635896683, 9.659825325, 9.606584549, 9.6693964, 9.731609344, 9.756135941, 9.751350403, 9.689735413, 9.650852203, 9.616754532, 9.578469276, 9.626325607, 9.655039787, 9.722636223, 9.655637741, 9.703494072, 9.70827961, 9.67956543, 9.650852203, 9.6693964, 9.678967476, 9.626325607, 9.602396965, 9.598209381, 9.60778141, 9.646066666, 9.684351921, 9.684351921, 9.660423279, 9.60778141, 9.60778141, 9.728020668, 9.693922997, 9.727422714, 9.64068222, 9.587442398, 9.606584549, 9.732208252, 9.775279045, 9.732208252, 9.698708534, 9.646066666, 9.565308571, 9.540781975, 9.507282257, 9.646066666, 9.6693964, 9.626325607, 9.650253296, 9.736394882, 9.818349838, 9.717850685, 9.622138023, 9.741779327, 9.838089943, 9.770493507, 9.689137459, 9.693324089, 9.583254814, 9.410373688, 1.278365493, 1.130010486, 1.024726272, 1.067797065, 1.120439172, 1.134796143, 1.177866936, 1.211366415, 1.173081279, 1.124626637, 1.0863415, 1.048056364, 1.000798106, 1.005583763, 0.9858429432, 1.048654556, 1.072582722, 1.095912814, 1.120439172, 1.138983607, 1.129412293, 1.134796143, 1.163509965, 1.130010486, 1.15393877, 1.220937729, 1.216750264, 1.20179522, 1.067198873, 1.071984529, 1.077368379, 1.125224829, 1.244267821, 1.248455167, 1.220339537, 1.2352947, 1.297508121, 1.316052437, 1.26341033, 1.277767301, 1.320838094, 1.301695466, 1.11445713, 1.109671474, 1.070788145, 1.06660068, 1.100698471, 1.133599758, 1.119242787, 1.171884894, 1.104885817, 1.201196909, 1.316052437, 1.426122308, 1.599003673, 1.886740685, 2.136192322, 2.165504456, 2.162513494, 2.000399828, 1.803590059, 1.509871125, 1.341775298, 1.232303619, 1.176072359, 1.048654556, 1.216750264, 1.343569875, 1.567298889, 1.987239242, 2.289333105, 2.493919373, 2.682952404, 3.112463951, 3.668197155, 4.357928276, 4.509274483, 4.806582451, 4.428516388, 4.213162422, 3.443271875, 3.145365477, 3.414557934, 3.462414265, 2.865405083, 2.16131711, 2.154138565]","[0.1656972021, 0.08109235764, -0.02382374369, -0.1182024255, -0.1734857261, -0.1722639948, -0.1734857261, -0.2035708427, -0.2406809032, -0.2796235681, -0.3019201458, -0.3020728528, -0.2762638032, -0.2298380435, -0.1951714456, -0.1539380401, -0.1348485053, -0.1295034289, -0.108123146, -0.07757988572, -0.05192354694, -0.04627304152, -0.03145955876, 0.05192354694, 0.1956295967, 0.1989893466, 0.1388191283, 0.0960585624, 0.04291328415, -0.03497203439, -0.09514226019, -0.1478293836, -0.1747074574, -0.1828014255, -0.1673770845, -0.1450804919, -0.1340849251, -0.1235474944, -0.1235474944, -0.1003346145, -0.05131268129, -0.02000583708, -0.005192354787, 0.008857546374, 0.03237585723, 0.03940080851, 0.03176499158, 0.02275473066, 0.03054326214, 0.04703662544, 0.05161811411, 0.02458732575, -0.01863138936, -0.05467243865, -0.05574145541, -0.006872233935, 0.04123340547, 0.05421429127, 0.05238169432, 0.05192354694, 0.05192354694, 0.07941248268, 0.09239336848, 0.08231408894, 0.04016438872, -0.004581489135, -0.002748893574, 0.02718350291, 0.07819075137, 0.09315694869, 0.08170322329, 0.05421429127, 0.03084869497, 0.04062253982, 0.05054909736, 0.05039638281, 0.03894266114, 0.02153299935, 0.0140499007, 0.01863138936, 0.01847867295, 0.003665191587, -0.01588249579, -0.01221730467, 0.009926560335, 0.01618792862, 0.01496619824, 0.0109955743, 0.02183843218, 0.02199114859, 0.004886921961, -0.01374446787, -0.01374446787, -0.003817907767, 0.006261368748, 0.009621127509, 0.00320704258, 0.0006108652451, -0.001527163084, -0.006566801574, -0.003970623948, -0.002748893574, -0.002748893574, -0.006414085161, -0.009010262787, -0.01267545391, -0.01740965992, -0.01389718428, -0.005345070735, 0.006872233935, 0.009315694682, 0.01420261711, 0.02290744707, 0.02183843218, 0.002290744567, -0.007635815535, -0.009010262787, -0.004123340361, -0.002748893574, -0.001527163084, 0.004581489135, 0.004734205548, -0.0001527163113, -0.001527163084, 0.007024950348, 0.01084285788, 0.01450804994, 0.001069014193, -0.004886921961, -0.009926560335, -0.002596177394, 0.002138028387, 0.007024950348, -0.001374446787, -0.01634064503, -0.02244929783, -0.01649336144, -0.007941247895, -0.006566801574, -0.02244929783, -0.02718350291, -0.01374446787, 0.00244346098, 0.007483099122, 0.01359175146, -0.0171042271, -0.03802636266, -0.04673119262, -0.03588833287, -0.02855795063, -0.03726277873, -0.03970624134, -0.03115412779, -0.01053742506, 0.0006108652451, 0.003359758761, 0.03436116874, 0.0726929605, 0.1010981947, 0.1172861308, 0.1145372316, 0.08933904022, 0.03023782931, nan, 0.120187737, 0.120187737, 0.1166752651, 0.1056796908, 0.1033889428, 0.0972802937, 0.08903361112, 0.08292495459, 0.07941248268, 0.07223481685, 0.06887505949, 0.06902777404, 0.07040221989, 0.05833763257, 0.04978551716, 0.04978551716, 0.04978551716, 0.04734205827, 0.04856378585, 0.05574145541, 0.0545197241, 0.05192354694, 0.05192354694, 0.05192354694, 0.04566217586, 0.04550946131, 0.0552833043, 0.07116580009, 0.07009678334, 0.05925392732, 0.05085453019, 0.06093380973, 0.08048149943, 0.09666942805, 0.09208793938, 0.09330966324, 0.1043052375, 0.1252273768, 0.1327104717, 0.1437060535, 0.1522581577, 0.1681406647, 0.1780672222, 0.1893682331, 0.200821951, 0.2119702399, 0.235793978, 0.2704605758, 0.3138320148, 0.3568980098, 0.4077525437, 0.4499022663, 0.492051959, 0.5267185569, 0.5540547967, 0.6154467463, 0.6948592067, 0.7643451095, 0.8116871715, 0.8666650653, 0.9172141552, 0.9547823668, 0.9818131924, 0.9961684942, 1.010676503, 1.009912968, 1.001208186, 0.9749409556, 0.9358455539, 0.9611964822, 1.075580955, 1.20264101, 1.370018005, 1.566869378, 1.804801345, 2.058463097, 2.180025339, 2.254703522, 2.266004562, 2.262339354, 2.240500927, 2.202474594, 2.230421782, 2.343889952, 2.394438982, 2.36771369]","[-0.03298672289, -0.0410806872, 0.01786780916, 0.104152523, 0.1145372316, 0.1134682223, 0.1065959856, 0.1543961912, 0.1835650057, 0.1548543423, 0.1679879427, 0.1837177277, 0.1815796942, 0.2044871449, 0.2835941911, 0.4375322461, 0.4893030524, 0.4453207552, 0.4062253833, 0.4259257913, 0.5557346344, 0.7131851912, 0.830776751, 0.6050620079, 0.149509266, 0.06856962293, 0.1794416606, 0.2744311988, 0.4207334518, 0.4786129296, 0.4780020416, 0.4627304375, 0.4465425014, 0.4085161388, 0.3462078869, 0.3233004212, 0.3211624026, 0.2623666227, 0.145538643, 0.04169155285, -0.05222897977, -0.1119410545, -0.1191187203, -0.1681406647, -0.1837177277, -0.1615738571, -0.1371392459, -0.09926560521, -0.02672535367, 0.03588833287, 0.06902777404, 0.06994406879, 0.09269879758, 0.1340849251, 0.1230893433, 0.02550362423, -0.1038470939, -0.1649336219, -0.2176207453, -0.2900082767, -0.2900082767, -0.4466952085, -0.5140430927, -0.4897612035, -0.3368921876, -0.1840231568, -0.1226311997, -0.1664607823, -0.2247984111, -0.2490803003, -0.2113593817, -0.1724167168, -0.1566869318, -0.1540907621, -0.1711949855, -0.1478293836, -0.1209513173, -0.1015563458, -0.09300423414, -0.06108652428, -0.03665191308, -0.03069597855, -0.03833179548, -0.03466660157, -0.04780020565, -0.05879577994, -0.06001751125, -0.03313944116, -0.004734205548, -0.02076941915, -0.0282525178, -0.0125227375, -0.01374446787, -0.01847867295, -0.04046982154, -0.02199114859, 0.01343903504, 0.0232128799, -0.002596177394, -0.002596177394, -0.002596177394, -0.006261368748, -0.009926560335, -0.01359175146, -0.003817907767, -0.005192354787, -0.007788531948, -0.002748893574, 0.007177666761, 0.0109955743, 0.01221730467, 0.0109955743, 0.0001527163113, -0.0171042271, -0.01970040426, -0.01130100712, 0.005955935922, 0.003512475174, -0.006261368748, -0.002596177394, -0.003817907767, -0.01481348183, -0.0160352122, -0.006261368748, -0.00244346098, -0.0109955743, -0.01588249579, -0.02458732575, -0.03084869497, -0.03207042441, -0.022143865, -0.01237002108, -0.009773843922, -0.0160352122, -0.002748893574, 0.0009162978968, 0.0155770639, 0.01450804994, 0.002290744567, -0.009010262787, -0.01527163107, -0.01985312067, -0.03436116874, -0.04413501546, -0.04780020565, -0.04566217586, -0.0423024185, -0.0313068442, -0.01160643995, 0.0007635815418, -0.00167987938, 0.009315694682, 0.01069014147, 0.02687807009, 0.01466076635, -0.01237002108, -0.04016438872, -0.05696318299, -0.07131851465, -0.08720101416, -0.0723875314, -0.01130100712, 0.01374446787, nan, 0.2037235647, 0.2037235647, 0.1852448881, 0.1777617931, 0.1727221459, 0.1566869318, 0.1284344196, 0.1221730486, 0.1136209369, 0.09132435173, 0.07040221989, 0.0532979928, 0.04474587739, 0.02367102914, 0.01007927675, 0.01267545391, 0.01023199316, 0.01023199316, 0.01389718428, 0.0262672063, 0.03359758854, 0.03970624134, 0.04948008433, 0.05070181563, 0.05314527452, 0.06536258012, 0.07528914511, 0.0853684172, 0.06688974798, 0.04718934, 0.0262672063, 0.01038470957, 0.008246680722, -0.005039638374, -0.02962696366, -0.03329215571, -0.03451388702, -0.03176499158, -0.0415388383, -0.04260785133, -0.03390302137, -0.02764165215, -0.0410806872, -0.06429356337, -0.09132435173, -0.1096503139, -0.1437060535, -0.1763873398, -0.2078468949, -0.2257147133, -0.2742784917, -0.3129157126, -0.3455969989, -0.3758348525, -0.4050036669, -0.4007275999, -0.3593414724, -0.3156646192, -0.2696970105, -0.2469422817, -0.2623666227, -0.3307835162, -0.4398229718, -0.5120577812, -0.613766849, -0.7609853745, -0.8677340746, -0.9317222238, -0.9526443481, -0.9236282706, -0.9488264322, -1.000902653, -1.046717644, -1.081231475, -1.062752843, -1.015868902, -1.011898279, -0.99586308, -1.03556931, -1.040150762, -1.066112518, -1.059393048, -1.025031924, -0.96028018, -0.8704829812, -0.7816020846]","[0.06383541971, 0.04199698567, 0.01679879427, -0.0155770639, -0.02886338346, -0.04718934, -0.130114302, -0.1994474977, -0.2174680233, -0.2041817009, -0.1844813079, -0.1576032341, -0.1576032341, -0.2028072625, -0.2487748712, -0.2932153046, -0.3283400834, -0.3396410644, -0.3094032407, -0.2629774809, -0.1792889535, -0.06490442902, -0.01420261711, -0.04734205827, -0.06215553731, -0.0491746515, -0.03756821156, -0.02962696366, 0.0140499007, 0.03145955876, 0.03527746722, 0.03283400834, 0.02794708498, -0.003970623948, -0.00320704258, -0.03145955876, -0.06933320314, -0.05864306539, 0.009162978269, 0.008552113548, -0.001832595794, -0.003359758761, -0.001069014193, 0.02916881628, 0.01435533352, 0.01450804994, 0.0171042271, 0.01359175146, 0.005497787148, 0.0009162978968, 0.002290744567, 0.009621127509, 0.01359175146, 0.01634064503, 0.01007927675, -0.001527163084, -0.01206458826, -0.022143865, -0.02244929783, -0.0190895386, -0.0190895386, 0.00320704258, 0.01740965992, 0.02122756653, 0.01237002108, -0.001374446787, -0.01328631863, -0.01359175146, -0.01145372353, -0.007941247895, -0.004123340361, -0.005039638374, -0.001374446787, -0.002596177394, -0.007483099122, -0.01832595654, -0.02550362423, -0.02290744707, -0.01924225502, -0.01664607786, -0.0140499007, -0.001832595794, 0.007941247895, 0.01038470957, 0.005345070735, 0.002901609987, -0.0007635815418, -0.001832595794, 0.0007635815418, -0.0006108652451, 0.001832595794, 0.0007635815418, -0.00167987938, -0.005345070735, -0.004276056774, -0.005497787148, -0.006414085161, -0.0003054326226, 0.001985311974, -0.00167987938, -0.009010262787, -0.01023199316, -0.01023199316, -0.002901609987, -0.002901609987, 0.001985311974, 0.005650503561, 0.006872233935, 0.005803219974, 0.005803219974, 0.002138028387, 0.0009162978968, -0.00167987938, -0.001832595794, -0.0004581489484, 0.001985311974, 0.002138028387, 0.005650503561, 0.005650503561, 0.004428773187, -0.00167987938, -0.005345070735, -0.005345070735, -0.00167987938, -0.0004581489484, 0.001985311974, 0.004428773187, 0.004276056774, 0.003054326167, 0.001832595794, -0.0004581489484, -0.006566801574, -0.006566801574, -0.002901609987, -0.002901609987, -0.002748893574, -0.003970623948, -0.0003054326226, 0.00320704258, 0.01053742506, 0.01053742506, 0.0007635815418, -0.003054326167, -0.004276056774, 0.00167987938, 0.007941247895, 0.0140499007, 0.01053742506, -0.0004581489484, -0.001527163084, -0.005192354787, -0.006414085161, -0.01618792862, -0.02107485011, -0.01007927675, -0.002901609987, 0.004276056774, 0.006414085161, 0.008857546374, 0.008704829961, 0.002596177394, -0.005497787148, 0.001985311974, nan, -0.0313068442, -0.0313068442, -0.03252857551, -0.02412917651, -0.02046398632, -0.01679879427, -0.01450804994, -0.008399397135, -0.00244346098, 0.004886921961, 0.01450804994, 0.01679879427, 0.01191187184, 0.01542434748, 0.0190895386, 0.01298088674, 0.009315694682, 0.005650503561, 0.008093964309, 0.005803219974, 0.003359758761, -0.0003054326226, -0.001527163084, -0.003817907767, -0.005039638374, -0.006261368748, -0.008704829961, -0.01221730467, -0.01114829071, -0.01130100712, -0.01130100712, -0.01511891466, -0.01756237634, -0.01893682219, -0.01298088674, -0.01298088674, -0.01175915636, -0.01175915636, -0.008246680722, -0.004581489135, -0.007024950348, -0.002138028387, 0.007635815535, 0.02092213556, 0.0354301855, 0.04260785133, 0.04718934, 0.05436700583, 0.05772676691, 0.06001751125, 0.06093380973, 0.05696318299, 0.05299255997, 0.05650503561, 0.06001751125, 0.06597344577, 0.06734789163, 0.05879577994, 0.0479529202, 0.03588833287, 0.04062253982, 0.07559457421, 0.104152523, 0.125838235, 0.1472185254, 0.1524108797, 0.1556179225, 0.1418734491, 0.08689557761, -0.009468411095, -0.1087340117, -0.1666134894, -0.2037235647, -0.2115120888, -0.2118175179, -0.1986839175, -0.2220495194, -0.3086396754, -0.4273002446, -0.4957171381, -0.499535054, -0.4602869749, -0.3967569768, -0.3477350473, -0.2997821271, -0.2539672256]"
4,3,falling,3_falling,500,13.26388549,15.77911882,"[1.44646132, 1.527817249, 1.537388563, 1.566102386, 1.585245013, 1.566102386, 1.556531072, 1.556531072, 1.518245935, 1.527817249, 1.537388563, 1.513460279, 1.470389485, 1.475175142, 1.436890006, 1.546959877, 1.566102386, 1.546959877, 1.54217422, 1.566102386, 1.518245935, 1.523031592, 1.63788712, 1.666600943, 1.613958836, 1.618744493, 1.609173179, 1.618744493, 1.609173179, 1.489532113, 1.49431777, 1.537388563, 1.580459356, 1.570888042, 1.599601984, 1.623530149, 1.613958836, 1.436890006, -2.746960402, -2.876172781, -2.895315409, -2.938386202, -2.952743053, -2.986242771, -3.010170937, -3.000599623, -2.976671457, -3.034099102, -3.029313564, -2.995813847, -2.919243574, -2.94317174, -2.995813847, -2.919243574, -2.876172781, -2.914458036, -2.876172781, -2.895315409, -2.857030153, -2.818745136, -2.804388046, -2.790031195, -2.818745136, -2.823530674, -2.785245657, -2.770888567, -2.847458839, -2.847458839, -2.857030153, -2.876172781, -2.895315409, -2.928814888, -2.962314367, -2.947957516, -2.947957516, -2.990430117, -3.01974225, -3.043670416, -3.014358282, -3.01974225, -3.05324173, -3.086741209, -3.120240688, -3.03888464, -2.95752883, -2.94317174, -2.914458036, -2.861815929, -2.847458839, -2.713460922, -2.684746981, -2.69850564, -2.736790895, -2.793620348, -2.81695056, -2.840878725, -2.740978241, -2.678765059, -2.722434044, -2.947359324, -2.981456995, -2.914458036, -2.885744095, -2.857628345, -2.594418049, -2.393420935, -2.120639086, -1.780858278, -1.828116536, -2.148156643, -2.568096876, -3.041277647, -3.288934708, -3.287738323, -2.756531715, -1.7138592, -0.8638089895, -0.8638089895, -1.663609982, -2.515454769, -3.299104214, -3.643072367, -4.050450325, -4.324428558, -4.807180882, -4.189832687, -3.395415306, -2.983849764, -2.499303341, -2.137987137, -2.155334949, -1.9585253, -1.622931957, -1.535593987, -1.420140266, -2.163709879, -1.357926846, -1.675574064, -1.747956991, -1.126421213, -0.7387840152, -0.342771858, 0.06340979785, -0.7064808607, -1.700698733, -2.938984394, -3.910470486, -4.772484779, -1.928615093, -1.204187989, -1.645065546, -1.776072621, -0.8937192559, 0.6502495408, 1.747956991, 1.278963685, 0.1142572835, -1.227517962, -1.612762451, -1.94177556, -2.012363911, -2.021935225, -1.712064624, -1.081555843, -0.4546363056, -0.03290131316, -0.199800685, -0.3996013701, -0.5545366406, 0.799800992, 1.954337835, 2.030309916, 1.004387259, -1.440479279, -3.026920557, 1.064806104, 3.735794306, 5.072185993, 6.507281303, 7.937591076, 9.945767403, 13.15872955, 18.80040741, 22.59063911, 22.55594254, 15.22732544, 7.664210796, -1.39022994, -7.544569969, -9.622138023, -0.756131947, 8.769096375, 12.34337521, 12.86142159, 7.978867054, 2.469393015, 3.577269793, 4.866403103, 8.799007416, 11.50050354, 9.903892517, 5.892325878, 4.729413986, 4.861617565, 4.93878603, 4.574478626, 5.135595798, 6.174080849, 5.413163185, 5.19182682, 4.335196495, 3.026322365, 2.124228239, 1.451845169, 0.3254238665, 2.218744755, 3.238087177, 3.789632797, 4.278964996, 4.762315273, 5.207978249, 5.240281582, 5.249852657, 4.846662045, 4.456632137, 4.484747887, 5.102694511, 4.728815556, 4.240081787, 4.627718925, 5.364708424, 5.373681545, 5.379065514, 5.355136871, 4.700101852, 3.858426571, 3.007778168, 1.89391911, 1.344168067, 1.1820544, 1.406381488, 1.975873351, 1.93340075, 1.532602906, 1.730010748, 1.812563181, 2.21156621, 2.348555326, 2.991028309, 3.577867985]","[0.4307080805, 0.4450650215, 0.4594219327, 0.4642075896, 0.4546363056, 0.4402793646, 0.4019941986, 0.4019941986, 0.4737788737, 0.5066801906, 0.4683950245, 0.4205385745, 0.3541377485, 0.3254238665, 0.3302095234, 0.4013960063, 0.3966103494, 0.3966103494, 0.4348955154, 0.4594219327, 0.5413761139, 0.4791627228, 0.3888336718, 0.3541377485, 0.2919243574, 0.3110669553, 0.3014956415, 0.3391826153, 0.4295116663, 0.4588237405, 0.4881358147, 0.4444667995, 0.4630111754, 0.4444667995, 0.3876372576, 0.2727817893, 0.2829512656, 0.3792623878, -9.316454887, -9.301499367, -9.219545364, -9.25783062, -9.263215065, -9.210572243, -9.168100357, -9.177671432, -9.191430092, -9.220144272, -9.263215065, -9.238688469, -9.272188187, -9.262616158, -9.25783062, -9.25783062, -9.2865448, -9.291928291, -9.291928291, -9.320642471, -9.363713264, -9.330213547, -9.306285858, -9.287142754, -9.291928291, -9.273384094, -9.239884377, -9.330213547, -9.391828537, -9.348757744, -9.300901413, -9.27278614, -9.378668785, -9.407382011, -9.287740707, -9.249456406, -9.250054359, -9.321838379, -9.317052841, -9.317052841, -9.307481766, -9.312267303, -9.339784622, -9.354142189, -9.368498802, -9.324830055, -9.334999084, -9.382855415, -9.397212982, -9.449854851, -9.473783493, -9.459425926, -9.494122505, -9.504291534, -9.404989243, -9.311071396, -9.192625999, -9.087940216, -8.886942863, -8.794819832, -8.870193481, -8.96889782, -9.005986214, -8.981459618, -8.808578491, -8.544769287, -8.621937752, -8.397610664, -8.001599312, -7.664210796, -7.575676441, -7.572087288, -7.674380302, -7.706085205, -7.51346302, -7.479365349, -7.293323517, -7.136593342, -6.822535515, -6.801598549, -6.960123062, -7.275377274, -7.482954502, -7.215556622, -7.504489899, -7.328019142, -7.462017536, -7.196413994, -6.896114826, -6.516254425, -6.071787357, -5.747560024, -5.505286694, -5.665007591, -6.447460651, -7.637291908, -8.413164139, -9.337391853, -9.484550476, -9.866804123, -10.13659477, -9.805787086, -9.544969559, -8.509475708, -7.457231998, -8.222336769, -9.576076508, -11.23490047, -12.03948689, -12.58505058, -10.41954613, -10.3663063, -10.2149601, -9.524630547, -7.776673794, -7.19581604, -8.781061172, -9.117850304, -8.420342445, -8.426324844, -6.295516491, -5.40000248, -4.205984116, -3.201596737, -2.562713146, -1.829312921, -1.659422517, -2.120639086, -1.941177368, -1.743171334, -2.615355253, -3.895515203, -3.341576815, -2.091326952, -1.917847395, -1.431506157, -0.1884347796, 1.082752228, 3.303291559, 3.507279873, 4.0127635, 4.718048096, 5.185246468, 5.644070625, 6.75972414, 8.766105652, 11.24088287, 6.602396011, -2.314457655, -14.25703526, -17.4436779, -10.98006535, -0.5880361795, 14.30907917, 20.48375893, 18.88953972, 12.07537937, 7.78325367, 7.194619656, 7.780262947, 5.800800323, 2.502892494, -0.3577269912, -1.742573142, 0.02751746029, 4.063013077, 5.479563713, 6.968497753, 9.740582466, 10.01994514, 9.177671432, 8.712865829, 8.838488579, 8.896514893, 8.405985832, 7.973483086, 6.780063152, 7.051050186, 7.419544697, 7.461419106, 7.070790768, 6.799803734, 6.239883423, 5.683551788, 5.260022163, 5.005784988, 4.113262177, 3.813561201, 4.786243439, 5.681159019, 6.393023968, 7.060023308, 6.862017155, 7.284350395, 7.695317745, 7.909475327, 7.96690321, 7.936394691, 7.575676441, 6.962515831, 6.407381058, 5.980860233, 6.210571289, 6.745965004, 6.920042992, 6.777669907, 5.907280922, 5.72123909, 5.456233978, 4.479363918, 3.723232031, 3.208775282]","[9.602396965, 9.598209381, 9.60778141, 9.646066666, 9.684351921, 9.684351921, 9.660423279, 9.60778141, 9.60778141, 9.728020668, 9.693922997, 9.727422714, 9.64068222, 9.587442398, 9.606584549, 9.732208252, 9.775279045, 9.732208252, 9.698708534, 9.646066666, 9.565308571, 9.540781975, 9.507282257, 9.646066666, 9.6693964, 9.626325607, 9.650253296, 9.736394882, 9.818349838, 9.717850685, 9.622138023, 9.741779327, 9.838089943, 9.770493507, 9.689137459, 9.693324089, 9.583254814, 9.410373688, 1.278365493, 1.130010486, 1.024726272, 1.067797065, 1.120439172, 1.134796143, 1.177866936, 1.211366415, 1.173081279, 1.124626637, 1.0863415, 1.048056364, 1.000798106, 1.005583763, 0.9858429432, 1.048654556, 1.072582722, 1.095912814, 1.120439172, 1.138983607, 1.129412293, 1.134796143, 1.163509965, 1.130010486, 1.15393877, 1.220937729, 1.216750264, 1.20179522, 1.067198873, 1.071984529, 1.077368379, 1.125224829, 1.244267821, 1.248455167, 1.220339537, 1.2352947, 1.297508121, 1.316052437, 1.26341033, 1.277767301, 1.320838094, 1.301695466, 1.11445713, 1.109671474, 1.070788145, 1.06660068, 1.100698471, 1.133599758, 1.119242787, 1.171884894, 1.104885817, 1.201196909, 1.316052437, 1.426122308, 1.599003673, 1.886740685, 2.136192322, 2.165504456, 2.162513494, 2.000399828, 1.803590059, 1.509871125, 1.341775298, 1.232303619, 1.176072359, 1.048654556, 1.216750264, 1.343569875, 1.567298889, 1.987239242, 2.289333105, 2.493919373, 2.682952404, 3.112463951, 3.668197155, 4.357928276, 4.509274483, 4.806582451, 4.428516388, 4.213162422, 3.443271875, 3.145365477, 3.414557934, 3.462414265, 2.865405083, 2.16131711, 2.154138565, 2.598605394, 2.905484915, 3.43609333, 4.312464714, 6.049055576, 7.176074982, 7.481758118, 7.828119278, 8.299505234, 8.434102058, 6.955337048, 8.317451477, 9.721440315, 9.26919651, 9.216554642, 9.607182503, 9.462417603, 9.614361763, 9.395418167, 9.100502968, 8.682954788, 7.91306448, 7.034300327, 7.021139622, 8.508278847, 8.000402451, 7.031907558, 6.199205399, 6.127420425, 7.275377274, 6.677769661, 5.226522923, 3.727419376, 2.705085993, 3.37986207, 4.498506546, 4.624129772, 4.299304008, 4.205984116, 4.616353035, 5.007579803, 5.285745144, 5.774479389, 4.413561344, 1.954337835, 0.745962441, 0.5814558864, 1.823929071, 4.043870449, 7.852645874, 10.12223816, 12.7567358, 13.96032524, 14.51007652, 15.1663084, 17.93540192, 23.73022079, 34.98306656, 45.9188652, 45.8434906, 31.43451118, 18.45823479, 7.759923935, 3.756133318, -4.46620369, -9.700503349, -8.213961601, -4.923830986, -1.656431437, -1.015154958, 14.10150242, 10.42492962, 6.554539204, 4.478765965, 3.396013498, 2.993421078, 2.72961235, 2.669193745, 2.561516523, 3.298506021, 3.200998545, 2.30189538, 2.982653379, 2.078764677, 1.409372568, 1.048056364, 1.564906001, 2.59740901, 3.487539053, 4.395017147, 4.198207378, 5.124229908, 6.069394588, 6.677171707, 7.132406235, 7.211967468, 6.628716946, 6.267400742, 5.517251015, 3.58504653, 3.348157167, 4.0127635, 3.964907169, 3.35413909, 3.848257065, 4.247260094, 4.039682865, 4.180859566, 4.316651821, 4.275974274, 4.415954113, 4.616353035, 4.575077057, 4.444668293, 4.503292084, 4.558327198, 4.760520458, 5.182853699, 5.702096462, 6.377470493, 7.027719975, 8.162516594, 9.741779327, 10.6540432, 9.546764374]","[0.01084285788, 0.01450804994, 0.001069014193, -0.004886921961, -0.009926560335, -0.002596177394, 0.002138028387, 0.007024950348, -0.001374446787, -0.01634064503, -0.02244929783, -0.01649336144, -0.007941247895, -0.006566801574, -0.02244929783, -0.02718350291, -0.01374446787, 0.00244346098, 0.007483099122, 0.01359175146, -0.0171042271, -0.03802636266, -0.04673119262, -0.03588833287, -0.02855795063, -0.03726277873, -0.03970624134, -0.03115412779, -0.01053742506, 0.0006108652451, 0.003359758761, 0.03436116874, 0.0726929605, 0.1010981947, 0.1172861308, 0.1145372316, 0.08933904022, 0.03023782931, nan, 0.120187737, 0.120187737, 0.1166752651, 0.1056796908, 0.1033889428, 0.0972802937, 0.08903361112, 0.08292495459, 0.07941248268, 0.07223481685, 0.06887505949, 0.06902777404, 0.07040221989, 0.05833763257, 0.04978551716, 0.04978551716, 0.04978551716, 0.04734205827, 0.04856378585, 0.05574145541, 0.0545197241, 0.05192354694, 0.05192354694, 0.05192354694, 0.04566217586, 0.04550946131, 0.0552833043, 0.07116580009, 0.07009678334, 0.05925392732, 0.05085453019, 0.06093380973, 0.08048149943, 0.09666942805, 0.09208793938, 0.09330966324, 0.1043052375, 0.1252273768, 0.1327104717, 0.1437060535, 0.1522581577, 0.1681406647, 0.1780672222, 0.1893682331, 0.200821951, 0.2119702399, 0.235793978, 0.2704605758, 0.3138320148, 0.3568980098, 0.4077525437, 0.4499022663, 0.492051959, 0.5267185569, 0.5540547967, 0.6154467463, 0.6948592067, 0.7643451095, 0.8116871715, 0.8666650653, 0.9172141552, 0.9547823668, 0.9818131924, 0.9961684942, 1.010676503, 1.009912968, 1.001208186, 0.9749409556, 0.9358455539, 0.9611964822, 1.075580955, 1.20264101, 1.370018005, 1.566869378, 1.804801345, 2.058463097, 2.180025339, 2.254703522, 2.266004562, 2.262339354, 2.240500927, 2.202474594, 2.230421782, 2.343889952, 2.394438982, 2.36771369, 2.332283497, 2.34969306, 2.368019104, 2.364048481, 2.352442026, 2.406656265, 2.468048334, 2.456747293, 2.40436554, 2.307085276, 2.09740591, 1.772120118, 1.652848601, 1.544878244, 1.387733102, 1.199433923, 1.091158032, 0.9453139901, 0.7287622094, 0.4883867502, 0.3472768962, 0.2464841306, 0.03359758854, -0.1806633919, -0.3764457107, -0.3484986126, -0.2079996169, -0.2745839357, -0.2881756723, -0.2631302178, -0.1091921628, 0.1039998084, 0.1595885456, -0.003054326167, -0.1188132912, -0.1163698286, 0.1353066564, 0.4295909703, 0.5703954101, 0.7194465399, 0.8394815922, 0.9694431424, 1.21195662, 1.397048831, 1.484555244, 1.338405728, 1.098793864, 0.9940304756, 0.9300423265, 0.9552405477, 1.119716048, 1.338558435, 1.719280243, 2.089617252, 2.386039734, 2.411543369, 2.101529121, 1.464702129, 1.316720009, 2.552958488, 3.540575027, 4.189772129, 4.815145493, 5.340489388, 5.033224106, 3.639840603, 1.433395267, -0.3836233616, -1.3733778, -1.441183805, -0.7791585922, 1.735010028, 3.755294085, 4.314693928, 3.902359962, 3.15466094, 2.704147816, 2.467132092, 2.464230299, 2.422080755, 2.285246849, 2.274404049, 2.20522356, 2.099391222, 1.967902422, 1.736078978, 1.390176535, 1.080467939, 0.7522805333, 0.4502076805, 0.1226311997, -0.1545489132, -0.4066835344, -0.5213735104, -0.5036584139, -0.4046982229, -0.2396118939, -0.112093769, -0.03039054573, -0.1127046347, -0.3422372639, -0.6010913849, -0.6940956116, -0.7655668855, -0.8805622458, -1.01495266, -1.062141895, -1.082605958, -1.129642606, -1.209971309, -1.332907915, -1.448972344, -1.527926683, -1.58794415, -1.707673788, -1.889711618, -2.176512957, -2.509281635, -2.668106556, -2.77302289, -2.816241503, -2.79165411, -2.72094655, -2.500118732, -2.062739134]","[-0.0109955743, -0.01588249579, -0.02458732575, -0.03084869497, -0.03207042441, -0.022143865, -0.01237002108, -0.009773843922, -0.0160352122, -0.002748893574, 0.0009162978968, 0.0155770639, 0.01450804994, 0.002290744567, -0.009010262787, -0.01527163107, -0.01985312067, -0.03436116874, -0.04413501546, -0.04780020565, -0.04566217586, -0.0423024185, -0.0313068442, -0.01160643995, 0.0007635815418, -0.00167987938, 0.009315694682, 0.01069014147, 0.02687807009, 0.01466076635, -0.01237002108, -0.04016438872, -0.05696318299, -0.07131851465, -0.08720101416, -0.0723875314, -0.01130100712, 0.01374446787, nan, 0.2037235647, 0.2037235647, 0.1852448881, 0.1777617931, 0.1727221459, 0.1566869318, 0.1284344196, 0.1221730486, 0.1136209369, 0.09132435173, 0.07040221989, 0.0532979928, 0.04474587739, 0.02367102914, 0.01007927675, 0.01267545391, 0.01023199316, 0.01023199316, 0.01389718428, 0.0262672063, 0.03359758854, 0.03970624134, 0.04948008433, 0.05070181563, 0.05314527452, 0.06536258012, 0.07528914511, 0.0853684172, 0.06688974798, 0.04718934, 0.0262672063, 0.01038470957, 0.008246680722, -0.005039638374, -0.02962696366, -0.03329215571, -0.03451388702, -0.03176499158, -0.0415388383, -0.04260785133, -0.03390302137, -0.02764165215, -0.0410806872, -0.06429356337, -0.09132435173, -0.1096503139, -0.1437060535, -0.1763873398, -0.2078468949, -0.2257147133, -0.2742784917, -0.3129157126, -0.3455969989, -0.3758348525, -0.4050036669, -0.4007275999, -0.3593414724, -0.3156646192, -0.2696970105, -0.2469422817, -0.2623666227, -0.3307835162, -0.4398229718, -0.5120577812, -0.613766849, -0.7609853745, -0.8677340746, -0.9317222238, -0.9526443481, -0.9236282706, -0.9488264322, -1.000902653, -1.046717644, -1.081231475, -1.062752843, -1.015868902, -1.011898279, -0.99586308, -1.03556931, -1.040150762, -1.066112518, -1.059393048, -1.025031924, -0.96028018, -0.8704829812, -0.7816020846, -0.6673702598, -0.5707008839, -0.5752823353, -0.6572909951, -0.8374962807, -0.9619600177, -1.082758665, -1.276708364, -1.425454021, -1.413694859, -1.21195662, -1.225090265, -1.32282865, -1.218370676, -1.120632291, -0.9584475756, -0.8260425329, -0.7447974682, -0.6116288304, -0.5383250117, -0.6635523438, -0.8626944423, -1.151175499, -1.523039818, -1.695303798, -1.674687028, -1.388038516, -0.9153815508, -0.5826127529, -0.4028656185, -0.3437644243, -0.4202753007, -0.460134238, -0.3906483352, -0.3527746797, -0.2414444834, -0.1209513173, -0.08353582025, -0.1559233516, -0.3200933933, -0.5216789246, -0.6212499738, -0.4598288238, -0.1067487001, 0.1986839175, 0.3164281845, 0.2044871449, -0.102319926, -0.5418374538, -0.8278751373, -0.6973026991, -0.3839288056, -0.06872233748, -0.1276708394, -0.5019785166, -0.9236282706, -1.297630548, -2.202474594, -3.026379108, -2.727207899, -2.182468891, -2.114051819, -2.40741992, -3.375641346, -3.005304337, -3.13404417, -3.289051294, -2.512336016, -1.174999356, -0.1687515229, 0.1449277848, -0.2536617815, -0.5041165352, -0.7066183686, -0.4526511431, 0.2428189367, 1.192256212, 1.31198585, 1.259145975, 1.19699049, 1.272737741, 1.164614558, 1.084285855, 1.224173903, 1.116967082, 0.865596056, 0.3946189582, 0.0853684172, -0.3133738637, -0.5091561675, -0.7312057018, -0.9815077186, -1.157742381, -1.21348381, -1.154840708, -0.9882272482, -0.7092145681, -0.4671591818, -0.08307767659, 0.1434006095, 0.02748893574, -0.08368854225, 0.1136209369, 0.2518292069, 0.2089159191, 0.2593123019, 0.3090978265, 0.2614503205, 0.2837468982, 0.3346014321, 0.3504839242, 0.4117231667, 0.558483541, 0.6661485434, 0.8527678847, 1.226617455, 1.631926537, 1.96698606, 2.116800785, 2.07785821, 1.890475273, 1.661858916, 1.492191076, 1.168585181, 0.9086620808]","[0.001985311974, 0.004428773187, 0.004276056774, 0.003054326167, 0.001832595794, -0.0004581489484, -0.006566801574, -0.006566801574, -0.002901609987, -0.002901609987, -0.002748893574, -0.003970623948, -0.0003054326226, 0.00320704258, 0.01053742506, 0.01053742506, 0.0007635815418, -0.003054326167, -0.004276056774, 0.00167987938, 0.007941247895, 0.0140499007, 0.01053742506, -0.0004581489484, -0.001527163084, -0.005192354787, -0.006414085161, -0.01618792862, -0.02107485011, -0.01007927675, -0.002901609987, 0.004276056774, 0.006414085161, 0.008857546374, 0.008704829961, 0.002596177394, -0.005497787148, 0.001985311974, nan, -0.0313068442, -0.0313068442, -0.03252857551, -0.02412917651, -0.02046398632, -0.01679879427, -0.01450804994, -0.008399397135, -0.00244346098, 0.004886921961, 0.01450804994, 0.01679879427, 0.01191187184, 0.01542434748, 0.0190895386, 0.01298088674, 0.009315694682, 0.005650503561, 0.008093964309, 0.005803219974, 0.003359758761, -0.0003054326226, -0.001527163084, -0.003817907767, -0.005039638374, -0.006261368748, -0.008704829961, -0.01221730467, -0.01114829071, -0.01130100712, -0.01130100712, -0.01511891466, -0.01756237634, -0.01893682219, -0.01298088674, -0.01298088674, -0.01175915636, -0.01175915636, -0.008246680722, -0.004581489135, -0.007024950348, -0.002138028387, 0.007635815535, 0.02092213556, 0.0354301855, 0.04260785133, 0.04718934, 0.05436700583, 0.05772676691, 0.06001751125, 0.06093380973, 0.05696318299, 0.05299255997, 0.05650503561, 0.06001751125, 0.06597344577, 0.06734789163, 0.05879577994, 0.0479529202, 0.03588833287, 0.04062253982, 0.07559457421, 0.104152523, 0.125838235, 0.1472185254, 0.1524108797, 0.1556179225, 0.1418734491, 0.08689557761, -0.009468411095, -0.1087340117, -0.1666134894, -0.2037235647, -0.2115120888, -0.2118175179, -0.1986839175, -0.2220495194, -0.3086396754, -0.4273002446, -0.4957171381, -0.499535054, -0.4602869749, -0.3967569768, -0.3477350473, -0.2997821271, -0.2539672256, -0.1350012124, -0.07101308554, -0.09056077152, -0.1154535338, -0.1554652005, -0.1574505121, -0.1288925707, -0.1189660057, -0.1574505121, -0.2341141105, -0.3352122903, -0.3872885704, -0.4668537676, -0.5174028873, -0.5325217843, -0.5398521423, -0.5291619897, -0.6786713004, -1.007164121, -1.224937558, -1.251052022, -1.133460522, -0.8440630436, -0.5343543887, -0.5777258277, -0.715628624, -0.8217664957, -0.8715519905, -0.9796751142, -1.072832108, -1.260673165, -1.382387996, -1.383915186, -1.212262034, -1.177748203, -1.13926363, -1.135445833, -1.101542711, -1.049619198, -0.9885326624, -1.082605958, -1.2310462, -1.331991673, -1.409724236, -1.479057431, -1.546558142, -1.753030539, -1.886351824, -1.925294518, -1.802357912, -1.576032281, -1.71271348, -1.873981833, -1.767538548, -1.563662291, -1.306029916, -1.016937971, -0.5079344511, -0.1311833113, -0.9935722947, -2.387719631, -3.687488079, -4.149149418, -3.598454475, -1.591456652, 0.2463314086, 1.22951901, 1.245401502, 0.625526011, 0.1098030284, -0.09101892263, 0.3199406862, 0.681420207, 0.4938845634, -0.5797111392, -2.116495371, -3.094643354, -3.058144093, -2.83136034, -2.526386023, -2.10213995, -1.864666104, -1.888184428, -1.893376827, -1.852143407, -1.865277052, -1.857488513, -1.748754501, -1.457371712, -1.041525245, -0.5563455224, -0.4240931869, -0.3061962128, -0.2183843255, -0.153479889, -0.1539380401, -0.1795943826, -0.2225076705, -0.365755558, -0.4657847583, -0.3610213697, -0.06337726861, -0.01572977938, -0.08323039114, -0.1125519201, -0.1644754708, -0.1751656085, -0.2547308207, -0.3851505518, -0.4457789063, -0.4503603876, -0.4425718784, -0.3133738637, -0.1736384481, -0.02092213556, 0.0716239512, 0.03161227703, -0.04780020565, 0.01924225502, 0.2144137025, 0.5297728777, 0.6725626588, 0.688597858, 0.6815729141, 0.6659958363]"
