window_id,activity_id,activity_name,recording_folder,window_start_idx,window_start_time_s,window_end_time_s,acc_x,acc_y,acc_z,gyr_x,gyr_y,gyr_z
0,2,running,2_running,0,12.8601226,15.3501226,"[-3.328416348, -0.2955136001, 1.144367456, 2.493919373, 4.112065792, 5.81096983, 7.505686283, 7.554141045, 7.144370079, 6.64427042, 5.33240509, 3.787240028, 1.709073544, 1.278963685, 1.037288666, 0.4366901219, -0.3505485058, -2.194218397, -3.203989506, -5.048855782, -6.641279221, -5.402395248, 0.1112662554, 1.78145647, 2.46221447, 2.124228239, 2.648854733, 4.42672205, 5.775077343, 6.9649086, 7.521239758, 7.469794273, 2.398804665, 1.292124271, 1.243071318, 2.413759947, 3.296711445, 7.086942673, 10.25204849, 6.476174355, -1.377069473, -8.724829674, -15.44088459, -11.2887392, -7.301698208, -3.805784464, -2.103291035, -0.4295116663, 2.80259347, 7.940581799, 10.30110168, 7.778468132, 5.648257732, 3.666402578, 3.371487141, 1.571486235, 0.1214357466, -0.8261220455, -1.331605792, -2.378465652, -3.191427231, -3.425923824, -2.647658348, 0.005383851007, 1.459023595, 2.760120869, 3.06999135, 3.918845177, 6.5288167, 6.263811588, 4.027718544, 2.577069998, 1.901695848, 1.244866014, 0.494716078, -0.4139583111, -2.39222455, -3.565903902, -3.610769272, -8.924032211, -9.168100357, -5.230710506, -2.870190859, -1.054636598, 2.801995277, 4.376472473, 5.988636971, 7.265805721, 7.205387115, 4.566103935, 2.797807932, 1.497308731, 0.9284151793, 1.467996716, 2.270190477, 2.821736097, 3.367897987, 3.747758389, 3.464807272, 2.477767944, -0.6634100676, -2.874976397, -3.899104595, -2.587239504, 0.4815555513, 3.363710403, 4.118047714, 3.79621315, 3.447459221, 3.884747505, 5.063212872, 5.785246849, 6.361319065, 6.480959892, 4.441078663, 1.94715941, 3.126222849, 4.911866665, 5.925825119, 9.875777245, -0.4546363056, -5.170291424, -9.975079536, -15.03290844, -15.70110416, -6.546164513, -6.546164513, 0.7417750359, 1.504487276, -0.7130611539, 4.32263422, 12.47677517, 10.41117096, 6.714260101, 5.68175745, 3.714857101, 0.06580262631, -0.7238288522, -0.8195417523, -1.292124271, -2.103889227, -3.543172121, -4.150351048, -4.122833252, -3.311068296, -2.183450699, 0.01555334684, 0.9439685345, 1.230509043, 2.056032896, 5.227719307, 5.790630817, 4.518247128, 2.685943365, 1.690529227, 1.486541033, 1.377069473, 0.1884347796, -0.9475577474, -2.051845312, -3.896711588, -6.909275532, -4.159922123, -2.393420935, -0.7363911867, 1.155733347, 3.173480988, 5.585446358, 6.412764549, 6.447460651, 5.754140377, 4.258625984, 2.413161755, 1.936391711, 1.615753531, 2.137388945, 2.640479803, 3.932604074, 3.395415306, 2.746960402, 1.508674622, 0.03708875179, -3.237488985, -4.700700283, -2.637488842, 1.240678549, 2.944966555, 2.496910334, 4.70488739, 5.190032482, 5.855835438, 6.44985342, 6.433701992, 4.997410297, 4.034298897, 3.166302681, 2.4173491, 1.816750646, 1.56191504, 3.211168051, 5.896512985, 3.645465374, 0.008973085321, -10.31785107, -14.07817173, -12.35653591, -8.642875671, -6.056832314, -2.967100143, 2.490928411, 10.69352436, 12.50189972, 7.06301403, 4.19581461, 4.080958843, 3.652045488, 2.328814745, 0.7154539824, -0.2955136001, -2.316850424, -3.080160856, -3.413959742, -3.279961586, -2.902493954, -0.1555334777, 1.751546144, 3.812364578, 5.247459888, 5.685945034, 8.795417786, 8.871988297, 6.420541286, 3.909872293, 2.060818434, -0.2584248483, -0.2584248483, -1.149153113, -2.038684845, -3.829712629, -3.90568471, -4.637888432, -6.005984783, -5.151148796, 1.188634634, 3.221935749, 4.62891531, 5.848058701, 7.007380962, 7.504489899, 6.509075642]","[-26.45145798, -14.99402523, -12.67956734, -11.13500023, -10.37946606, -9.916455269, -10.05703354, -10.74317551, -12.12443256, -13.96690559, -16.52483368, -18.47438622, -16.64327812, -15.47617912, -13.94058514, -12.83689499, -12.03410339, -9.27278614, -8.965906143, -9.000003815, -8.114660263, -5.862415314, -3.513859987, -2.555534601, -1.867598057, -1.554736495, -0.3104687333, 1.259821177, 0.8679963946, 1.205384374, 1.59003067, 2.140978098, -1.270588875, -2.852842808, -4.705485821, -6.949953556, -9.39840889, -16.14198112, -21.71127701, -24.05564499, -25.75454903, -29.95215797, -36.57189941, -30.96791077, -24.00838661, -20.70330048, -20.99701881, -21.03889275, -17.35454369, -15.01017666, -14.84746456, -14.9210434, -13.68275833, -11.15294647, -9.829715729, -7.922635555, -6.113063812, -4.414757729, -1.640279889, -1.875972986, -1.97826612, -1.594816327, -0.9008977413, 1.338784218, 2.811566591, 4.331008911, 5.466403484, 6.617949009, 2.723630428, 0.2632105052, -1.163509965, -1.841875196, -1.688734531, -1.262812138, -2.490330219, -5.603990555, -11.35813046, -18.56172371, -26.06381989, -40.82095718, -39.87818527, -28.7880497, -20.22832489, -15.4103756, -10.77787113, -10.41476059, -10.42074299, -10.42134094, -10.4476614, -10.68455124, -11.76969624, -13.48176098, -15.13879108, -16.6026001, -15.97747517, -14.94796276, -12.94098282, -11.27737331, -10.34776115, -9.944570541, -8.673383713, -8.428119659, -7.659425259, -6.448657036, -5.396413326, -3.226123095, -1.33399868, -0.03290131316, 0.1818545163, 0.4013960063, 0.970289588, 1.121635556, 1.800599098, 1.591227055, -0.7357929349, -4.531407833, -6.396613121, -7.576274872, -10.69771194, -18.91107559, -24.42354012, -26.14457893, -29.9306221, -34.9124794, -35.83192062, -23.59741783, -23.59741783, -21.67418671, -21.36491585, -19.97109604, -15.65683651, -14.95573997, -14.9461689, -13.72403431, -12.2919302, -11.18943691, -7.290332317, -5.622535229, -3.888336897, -2.78285265, -2.060220242, -1.335793257, -1.268794179, -0.8871390224, -0.05084748194, 1.189831018, 4.198805332, 5.037489891, 4.971687317, 4.597210407, 3.896113396, -0.3678964674, -1.733001828, -2.155933142, -1.633101463, -1.383051515, -5.194219589, -9.958928108, -15.16451359, -20.66321945, -32.13321686, -42.11487579, -30.22374344, -21.14836502, -16.12822342, -12.66760349, -10.70070267, -11.36590767, -11.56750298, -11.09731293, -11.40060329, -13.31605816, -14.31326675, -14.89711571, -15.354743, -14.66680622, -14.02014637, -11.98026466, -10.70907784, -10.07258701, -9.176474571, -8.795417786, -8.101499557, -7.332805157, -5.303092957, -3.553939819, -2.663809776, -2.088335991, 0.0765703246, 0.9750752449, 1.666600943, 2.488535643, 2.337189436, 0.3870390654, -0.9140582681, -2.299502611, -3.831507206, -5.769693375, -9.406784058, -11.78405285, -18.87757683, -22.36870384, -25.01995087, -33.99184036, -33.89313507, -27.79203606, -22.52483559, -23.54597282, -23.72124672, -21.37328911, -18.5850544, -18.06461525, -18.72264099, -13.45424366, -11.70987606, -10.56132126, -9.731011391, -7.532007694, -5.322834015, -2.868396044, -1.980658889, -1.555334687, -1.413560033, -1.663609982, -0.2871387303, 1.185643673, 3.006581545, 4.935196877, 5.0763731, 0.5814558864, -1.840080619, -3.114258766, -2.303689957, -1.282552958, -1.050449133, -1.050449133, -1.380658627, -6.059225082, -16.11805344, -23.24986076, -32.04587555, -39.37868118, -36.94817352, -19.32323837, -15.00120354, -12.46062374, -10.83410263, -10.07916737, -10.23410225, -10.72343445]","[-3.582653761, -2.464009047, -1.280160069, -0.1399801224, 1.010967612, 2.131406784, 3.396013498, 3.669991732, 4.047459602, 4.785645485, 5.702694416, 4.980660439, 3.533002615, 1.336391449, -0.08195417374, -1.432104349, -2.871387243, -3.818944931, -4.069592953, -6.504888535, -14.94736481, -19.80778503, -7.512865067, -0.6771687865, 3.357130051, 4.521238327, 3.899104595, 0.9619147182, -1.928016901, -5.196612358, -6.887141705, -6.227919102, -5.488536835, -4.473381996, -2.904886723, -1.262812138, 0.08015955985, 2.930011272, 3.840480328, 6.995417118, 8.242077827, 8.154141426, -0.9355936646, -4.082753658, -8.29890728, -9.796813965, -6.986443996, -3.991826296, 2.651845694, 1.939382792, 0.7190431952, -0.8285148144, -1.68574357, -2.405385017, -1.329811215, -1.91365993, -2.142772675, -2.21216464, -0.5491527915, -0.4444667995, -0.3332005441, -0.4755735099, -1.090528965, -0.7262216806, -0.3182454109, 0.2805584669, 0.06400800496, -0.9744769931, -2.406581402, 1.412363529, 1.931007862, 0.8057830334, -0.0005982056609, -0.8482556343, -3.607180119, -4.798805714, -2.539981127, 2.705684185, 2.36111784, 0.5706881881, 0.5425725579, -0.6550351977, 0.7441678643, 1.169492126, 1.012762189, 2.079362869, 2.459223509, 2.71286273, 3.780659676, 3.850051641, 4.219742775, 3.80159688, 3.118446112, 2.39760828, 2.026720762, 0.4887340367, -1.253839016, -2.414956331, -2.650051117, -3.675973892, -6.083751678, -10.32802105, -16.21735573, -17.59322929, -12.48933792, -1.15393877, 1.710269928, 4.030111313, 4.044468403, 2.697309256, -1.523031592, -4.22931385, -5.51605463, -5.722435474, -5.084748268, -2.297708035, -0.8733802438, -0.2703889608, -0.6747759581, -3.043670416, 3.001197815, 7.411170006, 6.789036274, 3.151347399, 0.8350951076, -8.063812256, -8.063812256, -7.013363361, -2.875574589, 1.165902853, -0.02751746029, 0.7316055298, -1.881356835, -4.866403103, -4.38724041, -1.974078655, -1.441675663, -1.194616675, -0.7148557901, 0.0185443759, 0.7190431952, 1.01036942, 0.8883354068, 0.3451646566, -0.08673982322, -0.1561316848, 0.3457628787, 1.024726272, 0.8769695163, -0.3194418252, -2.53818655, 1.286740422, 0.4929214716, -0.2063809484, -0.484546572, -2.274976015, -5.828317642, -3.196212769, 2.483749866, 3.728017569, 4.00199604, 4.075575352, -1.335195065, -0.5096712112, -0.2943171859, -0.1501496136, 0.1292124242, 1.28315115, 1.481755376, 2.030309916, 2.188834429, 2.223530531, 2.228914261, 2.88454771, 2.607578516, 2.814557552, 3.591626883, 2.024926186, 1.561316729, -0.1034895778, -2.688336134, -4.812564373, -6.779464722, -14.99223042, -21.63709831, -15.467206, -5.341976643, 1.210768223, 1.232901812, -0.04307080805, -1.87956214, -3.820739508, -4.932804108, -3.997808456, -2.697907448, -1.6181463, -0.9314061999, -0.27577281, 0.4516452849, -0.313459754, -0.6023930907, 4.75872612, 8.075178146, 6.446264267, 2.48195529, -3.937389612, -9.238089561, -10.08215809, -3.903890133, 0.8679963946, 3.004786968, 3.431905985, -0.7160521746, -4.007379532, -3.613760471, -2.142772675, -1.12283206, -1.741974831, -2.349751949, -0.9918249846, 0.1220339537, 0.879960537, 1.192822099, 0.670588553, -0.2201396823, -0.457029134, 0.1848455518, 1.107876897, 0.0951147005, -3.14895463, -0.8895317912, -0.2937189937, -0.09750752151, 0.8356932998, 0.9146564603, 0.9146564603, 0.08075776696, -4.195216179, 1.484148264, 2.388036966, 0.337986201, -1.736590981, -2.55254364, -0.7668996453, 0.366101861, 0.890130043, 1.082154036, 1.468594909, 2.26241374, 3.293122053]","[-1.227533698, -1.204931736, -1.155604362, -0.9624181986, -0.6849326491, -0.2017382532, 0.3376557529, 0.7000515461, 1.1351403, 1.463785887, 1.927127123, 2.451096773, 2.910161972, 3.427259445, 3.401603222, 3.375641346, 3.459788084, 3.629150391, 3.737273455, 3.708868265, 2.908787489, 1.350775719, -0.1934915632, -1.23929286, -1.567938328, -1.245706916, -0.8474228382, -0.5436700583, -0.3639229834, -0.705091238, -1.28052628, -1.846798301, -2.307543516, -2.733927488, -3.42237258, -3.618002176, -3.784615517, -3.981314182, -3.846160412, -2.160172224, -2.174680233, -2.197129488, -1.649183393, -1.428202987, -1.445765376, -1.776243448, -1.975538254, -1.96591711, -1.735162735, -1.163087368, -0.2345722616, -0.05009094998, 0.2151772827, 0.3683517575, 0.5175555944, 1.016785145, 1.146746755, 1.185842156, 1.21607995, 1.325272202, 1.440725684, 1.4198035, 1.294881582, 1.077566266, 0.8411614299, 0.5517640114, 0.5937610269, 0.5684100986, 0.3263547719, -0.153632611, -0.1996002197, -0.08368854225, -0.001985311974, 0.07299839705, 0.1704314053, 0.3801108897, 0.7832819819, 0.09193521738, -0.7527387142, -1.449125051, -1.716073155, -1.22692287, -0.889267087, -0.6658431292, -0.4448626041, -0.3145956099, 0.4969388843, 0.9098837972, 1.208749652, 1.495550871, 1.803121448, 2.392453671, 2.630843878, 2.902984381, 3.120604992, 3.270877838, 3.271794319, 3.281873465, 3.409238815, 3.496287346, 3.458719015, 2.983313084, 2.018146038, 0.6873761415, -0.5461135507, -1.325577617, -1.622152686, -1.200197458, -0.8329147696, -0.5732970238, -0.413403064, -0.4043927789, -1.193783402, -1.857488513, -2.503936529, -3.058296919, -3.494149208, -3.764304399, -3.635564566, -3.160922289, -2.419484615, -2.198045969, -2.308306932, -1.864207983, -1.590693116, -1.406975389, -1.406975389, -1.565647602, -1.496772528, -1.27487576, -0.869566679, -0.4280638099, 0.07513642311, 0.495869875, 0.4673119187, 0.5426010489, 0.7163922191, 0.8764389157, 1.040456176, 1.051909924, 1.012661815, 0.971581161, 0.955087781, 0.897208333, 0.7805330753, 0.6543893814, 0.522900641, 0.4279111028, 0.555123806, 0.5734497309, 0.2897028327, -0.07299839705, -0.07971791178, 0.141720742, 0.1882992089, 0.2545780838, 0.4864014387, 0.8239045143, 0.1302670091, -1.015563488, -1.543656468, -1.475697756, -1.038776398, -0.7008151412, -0.2648100853, -0.3145956099, -0.4214970171, -0.3152064681, 0.007024950348, 0.5616905689, 0.7473936081, 0.9324858189, 1.16507268, 1.468672752, 1.890475273, 1.986381054, 2.089770079, 2.19957304, 2.334574223, 2.974608421, 3.35273385, 3.59875989, 3.686877251, 3.643963814, 1.352455616, -0.1802052408, -0.9931141734, -1.146594048, -0.9393580556, -0.6360634565, -0.6659958363, -0.8000807762, -1.081536889, -1.425759435, -1.800067186, -2.393369913, -2.604729414, -2.780964136, -2.937803745, -3.11495471, -2.963765383, -2.317775488, -2.160477638, -2.020742178, -1.532660842, -1.273043156, -1.57297802, -1.862222672, -1.963320851, -1.910328388, -1.094975948, -0.7076873779, -0.4663956165, -0.381179899, -0.3472768962, -0.184786737, 0.04016438872, 0.2564106882, 0.3747658134, 0.4196644127, 0.5464189649, 0.6389650702, 0.7151705027, 0.7073819637, 0.613155961, 0.4899139404, 0.286801219, 0.4120286107, 0.5426010489, 0.3868304193, 0.07635815442, -0.01817324013, -0.084604837, -0.1305724531, -0.09193521738, -0.02550362423, -0.04581489414, -0.1803579628, 0.04566217586, -0.1999056488, -0.9059131742, -1.601077795, -1.537547827, -1.36772728, -1.152855396, -0.9364564419, -0.4631885588, -0.1852448881, 0.2127338201, 0.6233879924]","[-0.2612976134, -1.751197934, -2.779895067, -3.565467834, -3.565315008, -3.406490088, -3.003013611, -2.363132238, -1.207985997, -0.956309557, -0.7988590002, -0.6553056836, -0.6421720982, 0.1287398487, 0.3445279896, 0.3507893682, 0.06856962293, -0.3810271919, -0.7218900323, -0.2527455091, 0.8510879874, 1.094059706, 0.5166392922, 0.04978551716, 0.118049711, 0.1698205322, 0.01053742506, -0.05574145541, 0.1072068512, 0.7426594496, 0.9239336848, 0.9170614481, 0.7041749358, 0.1656972021, -1.23822391, -1.784795523, -2.061975718, -1.830457687, -1.190270901, -1.845729351, -0.8437576294, 1.109178543, 2.14184618, 2.305558205, 2.495079041, 1.184314966, 0.2255619913, -0.2987131178, -0.3875939846, -0.2527455091, 0.3836233616, 0.9112582207, 1.247844934, 0.837954402, 0.4382958114, 0.3721696436, 0.1705841124, -0.0300851129, -0.2038762718, -0.1838704348, 0.2935207486, 0.6453791261, 0.8552113175, 0.8536841869, 0.7913759351, 0.6293439269, 0.3759875596, 0.08918632567, -0.03573561832, 0.2646573782, 1.180802464, 1.355204582, 1.408197165, 1.382540822, 1.23669672, 0.7990117669, -0.6966918111, 0.008857546374, 1.280373573, 1.683086514, 1.212720275, -1.383915186, -2.397951603, -2.608089209, -2.587930679, -2.58945775, -2.047314882, -1.758833766, -1.27380681, -0.5705481172, -0.09071348608, 0.4780020416, 0.6777549982, 0.602465868, 0.5746715069, 0.9705121517, 1.452942967, 1.199281216, 0.9950994849, 0.8936958313, 0.7322747111, 1.085202098, 1.446834326, 1.234405994, 0.6407976151, 0.2825251818, 0.2313652188, 0.1409571618, 0.2304489166, 0.3875939846, 0.4654793143, 0.5204572082, 0.8324565887, 0.9920451641, 0.8162686825, 0.4002694488, -0.05115996301, -0.6647741199, -0.4599815309, -0.350025773, -1.399492264, -1.325883031, 1.162781954, 1.910939217, 2.566092253, 2.986672878, 2.986672878, 0.01328631863, -0.3123048544, 0.08353582025, 0.31047225, 0.4610505402, 0.6817256212, 0.6009386778, 0.05818491429, -0.1992947906, -0.1484402567, -0.1817324162, -0.5650503635, -0.6951646209, -0.5731443167, -0.275958389, 0.1221730486, 0.9592111707, 1.188896537, 1.171486855, 0.9544769526, 0.6400340796, 0.2139555514, 0.3043636084, 0.8590292335, 1.770134807, 2.263713837, 1.864055276, 1.430341005, 1.091463447, 0.5447390676, -0.236099422, -0.4702135324, 0.4639521539, 1.194699645, 1.407891631, 1.016937971, -0.2342668176, -1.799609065, -2.052812576, -2.158645153, -2.108248711, -1.937511802, -1.481500983, -1.085049391, -0.743881166, -0.5676465034, -0.4859432876, -0.2096794993, -0.2170098722, -0.0239764601, 0.3750712574, 0.6061310172, 1.127810001, 1.012509108, 0.4999932051, -0.04627304152, -0.05283984542, 0.8258898258, -0.04138612002, -0.2544253767, 0.0720821023, 0.428827405, 0.519540906, 0.4201225638, 0.2043344229, -0.004734205548, -0.1973094791, -0.338724792, -0.6687447429, -0.8935431242, -1.067487001, -1.097877502, -0.972192049, -0.7098253965, -1.207222462, -0.3332269788, 0.6989825368, 1.337947607, 2.611296177, 2.538755894, 1.826945186, 1.107345939, 0.5639813542, 0.4621195495, 1.055117011, 1.565189481, 1.313513041, 0.8155050874, -0.2235766798, -0.2504547536, -0.1348485053, -0.1786780804, -0.3338378668, -0.001832595794, 0.4280638099, 0.8837692738, 1.164614558, 1.259756804, 1.182329655, 0.8672759533, 0.739299655, 0.786030829, 1.089478135, 1.495856285, 1.894904017, 1.680032134, 1.263422012, 0.8723155856, 0.6186537743, 0.4552473128, -0.1459967941, -0.8304712772, -0.488081336, 0.783434689, 1.014341712, -0.2854267955, -1.766622305, -2.644741058, -2.888781786, -2.836552858, -2.773328304, -2.584112644, -2.317775488]","[0.999833703, 1.30068481, 1.651474237, 2.196366072, 2.297158718, 2.233781576, 1.981035948, 1.606575608, 0.9053022861, 0.5910121202, 0.3323107064, 0.25167647, 0.338724792, 0.3200933933, 0.2626720667, 0.1931861341, 0.1951714456, 0.2376265824, 0.2503020465, 0.2651155293, 0.5604688525, 0.9538660645, 1.15728426, 1.2310462, 1.103833556, 1.03144598, 0.9176723361, 0.6652322412, 0.3764457107, -0.145691365, -0.3940080702, -0.6994407177, -1.038012743, -1.184162259, -1.410335183, -1.630093932, -1.94636941, -2.302503824, -2.734996319, -3.838982582, -3.932445049, -3.754683256, -3.169016123, -2.20522356, -1.493718266, -1.009454846, -0.7420485616, -0.3614795208, -0.01695151068, 0.2525927722, -0.1288925707, -0.2643519342, -0.09941831976, 0.06658431143, 0.1447750628, 0.02886338346, 0.1618792862, 0.3938553631, 0.6065891981, 0.7528914213, 1.120326877, 1.305419087, 1.449583173, 1.503644824, 1.448819637, 1.123686671, 0.9109528065, 0.6275113225, 0.1365283877, -0.3921754956, -0.9694431424, -1.023657441, -1.124755621, -1.210582256, -1.257924199, -1.264185667, -1.128878951, -0.8712465763, -0.153632611, 0.5552765131, 1.266170979, 2.03143239, 2.056019783, 2.38161087, 2.719572067, 2.801122665, 2.397340536, 2.059990406, 1.629941225, 1.185231328, 0.8368853927, 0.7058547735, 0.7480044961, 0.7250970602, 0.6427829266, 0.5372560024, 0.432492584, 0.4274529517, 0.3576616049, 0.2434297949, 0.1133155003, 0.06352998316, 0.3368921876, 0.6322455406, 0.8350527883, 0.8918632865, 0.884685576, 0.5868887901, 0.4390594065, 0.2477058619, 0.02443460934, -0.1644754708, -0.5215262175, -0.7820602059, -1.088256478, -1.255633473, -1.40743351, -2.269669771, -2.893821478, -3.647323608, -4.35989809, -4.363563061, -3.903123379, -3.30783534, -2.40741992, -1.623068929, -1.623068929, -0.7609853745, -0.5015203953, -0.04077525437, 0.2930625975, 0.1221730486, -0.2107485086, -0.4818199575, -0.3955352604, -0.4457789063, -0.4178318381, -0.2997821271, 0.1702786833, 0.4320344329, 0.6939429045, 0.9508117437, 1.187369347, 1.582599163, 1.695151091, 1.714851499, 1.682170153, 1.590234995, 1.09696126, 0.7446447611, 0.314748317, -0.2144137025, -0.5865833759, -0.8077165484, -0.7783950567, -0.7533495426, -0.7530441284, -0.767552197, -0.8359690905, -0.6898195744, -0.2199114859, 0.3878994286, 1.002735257, 1.375057697, 1.964084506, 2.213164806, 2.294562578, 2.25684166, 2.183843136, 1.745852828, 1.377806544, 1.038776398, 0.8903360963, 0.9048441648, 1.003346205, 0.9738719463, 0.8611672521, 0.7666358948, 0.7041749358, 0.5447390676, 0.4103487432, 0.2582432926, 0.1246165112, 0.1197295859, 0.8865181804, 1.010218382, 0.8785769343, 0.7389942408, 0.7040221691, 0.204639852, -0.06078109145, -0.3046690524, -0.53481251, -0.7696902156, -0.9772316813, -1.244179845, -1.37444675, -1.517847419, -1.672854424, -1.900096297, -2.918408632, -3.45688653, -3.78079772, -3.719405651, -3.455512047, -2.203849077, -1.863139033, -1.657735586, -1.200044751, -0.6084218025, -0.3014619946, -0.7739662528, -0.7484626174, -0.3092505336, 0.03359758854, 0.2510656118, 0.2628247738, 0.3900374472, 0.570242703, 0.7878634334, 1.288772941, 1.546099901, 1.76326251, 1.945453048, 2.082745075, 2.085035801, 1.685682654, 1.35276103, 0.9413433671, 0.5123631954, 0.02061670274, -0.724180758, -0.80710572, -0.9275988936, -1.079856992, -1.164461851, -1.162781954, -1.11085844, -1.02579546, -0.9332493544, -0.5894849896, 1.009760261, 1.619251013, 2.000431061, 2.273640394, 2.472171545, 2.419179201, 2.179719925, 1.808924675, 1.459357023]"
1,2,running,2_running,125,14.1101226,16.6001226,"[-6.546164513, -6.546164513, 0.7417750359, 1.504487276, -0.7130611539, 4.32263422, 12.47677517, 10.41117096, 6.714260101, 5.68175745, 3.714857101, 0.06580262631, -0.7238288522, -0.8195417523, -1.292124271, -2.103889227, -3.543172121, -4.150351048, -4.122833252, -3.311068296, -2.183450699, 0.01555334684, 0.9439685345, 1.230509043, 2.056032896, 5.227719307, 5.790630817, 4.518247128, 2.685943365, 1.690529227, 1.486541033, 1.377069473, 0.1884347796, -0.9475577474, -2.051845312, -3.896711588, -6.909275532, -4.159922123, -2.393420935, -0.7363911867, 1.155733347, 3.173480988, 5.585446358, 6.412764549, 6.447460651, 5.754140377, 4.258625984, 2.413161755, 1.936391711, 1.615753531, 2.137388945, 2.640479803, 3.932604074, 3.395415306, 2.746960402, 1.508674622, 0.03708875179, -3.237488985, -4.700700283, -2.637488842, 1.240678549, 2.944966555, 2.496910334, 4.70488739, 5.190032482, 5.855835438, 6.44985342, 6.433701992, 4.997410297, 4.034298897, 3.166302681, 2.4173491, 1.816750646, 1.56191504, 3.211168051, 5.896512985, 3.645465374, 0.008973085321, -10.31785107, -14.07817173, -12.35653591, -8.642875671, -6.056832314, -2.967100143, 2.490928411, 10.69352436, 12.50189972, 7.06301403, 4.19581461, 4.080958843, 3.652045488, 2.328814745, 0.7154539824, -0.2955136001, -2.316850424, -3.080160856, -3.413959742, -3.279961586, -2.902493954, -0.1555334777, 1.751546144, 3.812364578, 5.247459888, 5.685945034, 8.795417786, 8.871988297, 6.420541286, 3.909872293, 2.060818434, -0.2584248483, -0.2584248483, -1.149153113, -2.038684845, -3.829712629, -3.90568471, -4.637888432, -6.005984783, -5.151148796, 1.188634634, 3.221935749, 4.62891531, 5.848058701, 7.007380962, 7.504489899, 6.509075642, 4.948955536, 3.139383316, 1.65762794, 0.1890329868, -0.4109672904, -0.02333002165, 0.8027920127, 1.677368641, 2.225325108, 3.529413462, 3.547359467, 2.422134638, -0.07118647546, -1.595414519, -1.595414519, 0.4061816335, 0.9888339639, 0.9074779749, 1.540379524, 1.540379524, 4.299902439, 5.429912567, 6.078966141, 6.881757736, 7.841279984, 6.737590313, 5.892325878, 4.798805714, 4.337589264, 4.566103935, 4.566103935, 5.468197823, 1.715055585, -4.664209366, -10.87358475, -8.914461136, -4.951946259, -2.042872429, 0.4289134443, 0.3535395563, 0.3535395563, 12.24287701, 11.09731293, 6.130411625, 3.626920938, 1.308275819, 1.067797065, 1.232303619, 1.244267821, 0.8027920127, -0.7286145091, -1.344766378, -1.829911113, -1.783849239, -1.293320656, -0.01316052489, 1.506281853, 3.245863914, 4.202992916, 4.687539577, 8.343772888, 7.387839794, 5.310869694, 3.755535126, 2.768495798, 1.258026481, -0.9661021233, -1.372283816, -1.281954765, -2.305484533, -2.270190477, -3.454039574, -4.012165546, -1.667797327, 2.108076811, 4.234697819, 4.234697819, 2.74396944, 0.4977070987, -1.342971683, -2.307279348, -3.318246841, -3.318246841, -3.739383698, -3.789632797, -3.375674486, -3.375674486, 0.1740778536, 2.360519648, 4.197010994, 5.383851051, 5.708676815, 5.471786976, 4.758127689, 3.336193085, 2.14995122, 2.268395901, 2.865405083, 3.588635683, 3.077768087, 2.593819857, 2.933002472, 2.933002472, 4.216751575, 4.547559261, 4.874777794, 5.080560684, 5.080560684, 4.290330887, 4.301098824, 6.105885029, 4.316651821, -4.065405846, -7.858029366, -8.808578491, -8.289336205, -7.503891945, -4.225126743, -1.363310695, 1.398006678, 5.941977024, 12.60658646, 13.11625767, 5.801996708, 4.781457901]","[-23.59741783, -23.59741783, -21.67418671, -21.36491585, -19.97109604, -15.65683651, -14.95573997, -14.9461689, -13.72403431, -12.2919302, -11.18943691, -7.290332317, -5.622535229, -3.888336897, -2.78285265, -2.060220242, -1.335793257, -1.268794179, -0.8871390224, -0.05084748194, 1.189831018, 4.198805332, 5.037489891, 4.971687317, 4.597210407, 3.896113396, -0.3678964674, -1.733001828, -2.155933142, -1.633101463, -1.383051515, -5.194219589, -9.958928108, -15.16451359, -20.66321945, -32.13321686, -42.11487579, -30.22374344, -21.14836502, -16.12822342, -12.66760349, -10.70070267, -11.36590767, -11.56750298, -11.09731293, -11.40060329, -13.31605816, -14.31326675, -14.89711571, -15.354743, -14.66680622, -14.02014637, -11.98026466, -10.70907784, -10.07258701, -9.176474571, -8.795417786, -8.101499557, -7.332805157, -5.303092957, -3.553939819, -2.663809776, -2.088335991, 0.0765703246, 0.9750752449, 1.666600943, 2.488535643, 2.337189436, 0.3870390654, -0.9140582681, -2.299502611, -3.831507206, -5.769693375, -9.406784058, -11.78405285, -18.87757683, -22.36870384, -25.01995087, -33.99184036, -33.89313507, -27.79203606, -22.52483559, -23.54597282, -23.72124672, -21.37328911, -18.5850544, -18.06461525, -18.72264099, -13.45424366, -11.70987606, -10.56132126, -9.731011391, -7.532007694, -5.322834015, -2.868396044, -1.980658889, -1.555334687, -1.413560033, -1.663609982, -0.2871387303, 1.185643673, 3.006581545, 4.935196877, 5.0763731, 0.5814558864, -1.840080619, -3.114258766, -2.303689957, -1.282552958, -1.050449133, -1.050449133, -1.380658627, -6.059225082, -16.11805344, -23.24986076, -32.04587555, -39.37868118, -36.94817352, -19.32323837, -15.00120354, -12.46062374, -10.83410263, -10.07916737, -10.23410225, -10.72343445, -10.91725349, -11.24566841, -11.99282742, -13.5714922, -15.74417496, -15.42533112, -14.55972767, -13.81974697, -13.4721899, -11.33300591, -9.814760208, -8.653044701, -7.51346302, -6.263213158, -6.263213158, -4.691128731, -4.031308174, -3.521636724, -2.449652195, -2.449652195, 0.4444667995, 1.282552958, 1.816750646, 1.538584948, 0.4749752879, -0.9320043921, -2.151745796, -3.82731986, -6.089733601, -9.815358162, -9.815358162, -22.35614204, -25.49732018, -30.64129066, -34.69234085, -29.07459068, -25.58585358, -23.77508545, -22.3758831, -22.00738716, -22.00738716, -13.93819237, -15.15554047, -15.52044582, -13.32622719, -11.14277649, -10.22991467, -9.429515839, -8.499904633, -7.165905476, -4.354339123, -3.512663603, -3.393022537, -3.323630571, -2.563909531, -0.5718846321, 0.7256234884, 1.848455548, 2.264208317, 2.139781713, -2.017149448, -3.284747362, -2.833101988, -1.920838356, -1.200598717, -1.029511929, -2.208575249, -3.574877024, -5.952744484, -11.68534946, -17.23490334, -29.97967529, -35.59204102, -33.13939667, -24.08794785, -16.77667809, -16.77667809, -9.576076508, -11.577672, -13.84606838, -15.17587948, -18.39961052, -18.39961052, -18.12623024, -17.75055695, -16.88016701, -16.88016701, -12.31585789, -10.99382401, -9.550951958, -8.58784008, -7.93878746, -6.395416737, -5.535196781, -4.923232555, -4.617549419, -4.010969162, -1.892722726, -1.118046403, -0.8853443861, -0.3571287692, 0.111864455, 0.111864455, 0.813559711, 0.5174478889, -0.290129751, -1.843669891, -1.843669891, -8.277371407, -9.466006279, -13.44885921, -19.92682838, -27.51147842, -32.33062363, -33.83869934, -30.68136978, -27.5844593, -23.01536369, -21.41875458, -19.87598038, -18.13340759, -16.6905365, -16.04447365, -13.48594856, -12.18724346]","[-8.063812256, -8.063812256, -7.013363361, -2.875574589, 1.165902853, -0.02751746029, 0.7316055298, -1.881356835, -4.866403103, -4.38724041, -1.974078655, -1.441675663, -1.194616675, -0.7148557901, 0.0185443759, 0.7190431952, 1.01036942, 0.8883354068, 0.3451646566, -0.08673982322, -0.1561316848, 0.3457628787, 1.024726272, 0.8769695163, -0.3194418252, -2.53818655, 1.286740422, 0.4929214716, -0.2063809484, -0.484546572, -2.274976015, -5.828317642, -3.196212769, 2.483749866, 3.728017569, 4.00199604, 4.075575352, -1.335195065, -0.5096712112, -0.2943171859, -0.1501496136, 0.1292124242, 1.28315115, 1.481755376, 2.030309916, 2.188834429, 2.223530531, 2.228914261, 2.88454771, 2.607578516, 2.814557552, 3.591626883, 2.024926186, 1.561316729, -0.1034895778, -2.688336134, -4.812564373, -6.779464722, -14.99223042, -21.63709831, -15.467206, -5.341976643, 1.210768223, 1.232901812, -0.04307080805, -1.87956214, -3.820739508, -4.932804108, -3.997808456, -2.697907448, -1.6181463, -0.9314061999, -0.27577281, 0.4516452849, -0.313459754, -0.6023930907, 4.75872612, 8.075178146, 6.446264267, 2.48195529, -3.937389612, -9.238089561, -10.08215809, -3.903890133, 0.8679963946, 3.004786968, 3.431905985, -0.7160521746, -4.007379532, -3.613760471, -2.142772675, -1.12283206, -1.741974831, -2.349751949, -0.9918249846, 0.1220339537, 0.879960537, 1.192822099, 0.670588553, -0.2201396823, -0.457029134, 0.1848455518, 1.107876897, 0.0951147005, -3.14895463, -0.8895317912, -0.2937189937, -0.09750752151, 0.8356932998, 0.9146564603, 0.9146564603, 0.08075776696, -4.195216179, 1.484148264, 2.388036966, 0.337986201, -1.736590981, -2.55254364, -0.7668996453, 0.366101861, 0.890130043, 1.082154036, 1.468594909, 2.26241374, 3.293122053, 3.223132133, 2.657827854, 2.385644197, 2.376072884, 1.439282775, 0.8446664214, 0.628115952, 0.9002995491, 0.04307080805, -2.87318182, -3.994219303, -6.57966423, -12.90389442, -16.13300896, -16.13300896, -5.011766911, -1.763510346, 0.0197407864, 1.034895778, 1.034895778, -0.9649057388, -1.439880967, -1.488335729, -1.089332461, 0.2733799815, 0.5700899959, 0.7381857634, 0.9290133715, 0.926620543, 0.4965106845, 0.4965106845, 5.135595798, 11.94317627, 14.55075455, 8.118846893, -7.118647575, -7.892725468, -6.135197163, -3.486342669, -2.430509567, -2.430509567, 5.50109911, 3.164507866, -1.411765337, -2.747558594, -1.118644595, -0.7088736892, -1.067198873, -0.7070791125, -0.4791627228, -0.02033899166, 0.4929214716, 0.6221339107, 0.3649054468, 0.5940182209, 0.5688936114, 0.2877369225, 0.670588553, 0.7447660565, -1.066002488, -2.625524759, 0.7226324677, 1.301097274, 1.75334084, 2.525026083, 1.270588875, -2.686541557, -2.830111027, -2.299502611, -1.26341033, 1.510469317, 3.125026464, 1.759322882, 2.152343988, 3.273979664, 4.670191765, 4.670191765, 1.829911113, 2.079961061, 3.096910715, 3.393022537, 3.443870068, 3.443870068, 1.131805062, 0.06340979785, -0.4743770957, -0.4743770957, -0.7890332937, -1.714457393, -4.375276089, -7.194619656, -8.092526436, -4.636692047, -2.291725874, -0.07537391037, -1.617548108, -5.173880577, -5.812166214, -5.301896572, -5.028516769, -4.108476639, -2.894717216, -2.894717216, -0.8865407705, -0.1740778536, 0.1728814393, 0.3403790295, 0.3403790295, 3.491726398, 4.411766529, 4.8376894, 6.404987812, 12.16211891, 7.60319376, -3.586841106, -9.79083252, -11.06441212, -4.734199524, -2.404188633, 0.6520441771, 4.697110653, 2.947957516, -0.006580262445, -1.97826612, -1.877169371]","[-1.406975389, -1.406975389, -1.565647602, -1.496772528, -1.27487576, -0.869566679, -0.4280638099, 0.07513642311, 0.495869875, 0.4673119187, 0.5426010489, 0.7163922191, 0.8764389157, 1.040456176, 1.051909924, 1.012661815, 0.971581161, 0.955087781, 0.897208333, 0.7805330753, 0.6543893814, 0.522900641, 0.4279111028, 0.555123806, 0.5734497309, 0.2897028327, -0.07299839705, -0.07971791178, 0.141720742, 0.1882992089, 0.2545780838, 0.4864014387, 0.8239045143, 0.1302670091, -1.015563488, -1.543656468, -1.475697756, -1.038776398, -0.7008151412, -0.2648100853, -0.3145956099, -0.4214970171, -0.3152064681, 0.007024950348, 0.5616905689, 0.7473936081, 0.9324858189, 1.16507268, 1.468672752, 1.890475273, 1.986381054, 2.089770079, 2.19957304, 2.334574223, 2.974608421, 3.35273385, 3.59875989, 3.686877251, 3.643963814, 1.352455616, -0.1802052408, -0.9931141734, -1.146594048, -0.9393580556, -0.6360634565, -0.6659958363, -0.8000807762, -1.081536889, -1.425759435, -1.800067186, -2.393369913, -2.604729414, -2.780964136, -2.937803745, -3.11495471, -2.963765383, -2.317775488, -2.160477638, -2.020742178, -1.532660842, -1.273043156, -1.57297802, -1.862222672, -1.963320851, -1.910328388, -1.094975948, -0.7076873779, -0.4663956165, -0.381179899, -0.3472768962, -0.184786737, 0.04016438872, 0.2564106882, 0.3747658134, 0.4196644127, 0.5464189649, 0.6389650702, 0.7151705027, 0.7073819637, 0.613155961, 0.4899139404, 0.286801219, 0.4120286107, 0.5426010489, 0.3868304193, 0.07635815442, -0.01817324013, -0.084604837, -0.1305724531, -0.09193521738, -0.02550362423, -0.04581489414, -0.1803579628, 0.04566217586, -0.1999056488, -0.9059131742, -1.601077795, -1.537547827, -1.36772728, -1.152855396, -0.9364564419, -0.4631885588, -0.1852448881, 0.2127338201, 0.6233879924, 0.8982773423, 1.089630842, 1.089630842, 1.750434399, 2.02013135, 2.358550787, 2.659096479, 2.883131266, 2.985451221, 3.043941498, 3.039970875, 2.93093133, 1.860084653, 0.6849326491, -0.3034473062, -0.9946413636, -1.436602354, -1.564884067, -1.445918083, -1.357342601, -1.351539373, -1.38009727, -1.500285029, -1.698205352, -1.907274008, -2.037082911, -2.142762661, -2.624277115, -2.997973919, -3.367394686, -3.600897789, -3.253010035, -2.417651892, -1.668425679, -0.8063421249, -0.4340197444, -0.6844745278, -1.044732332, -1.052520871, -1.011287451, -0.9735664725, -0.7982481718, -0.2183843255, 0.4440990388, 0.4627304375, 0.5456553698, 0.6980662346, 0.8918632865, 1.242958069, 1.380860925, 1.403921008, 1.319468975, 1.17377758, 0.8417723179, 0.7026477456, 0.5758932233, 0.4399756789, 0.2997821271, 0.2330450863, 0.1345430762, -0.2058615834, -0.4696026444, -0.3869831264, -0.2431243658, 0.03955352306, 0.1892155111, 0.2956587672, 0.2295326144, 0.1194241568, 0.1449277848, -0.3315471113, -1.007622242, -1.685529947, -1.781893969, -0.3529273868, 0.3376557529, 0.7904596329, 1.14491415, 1.278388262, 1.377043009, 1.729970336, 2.17376399, 2.537381411, 2.799748182, 3.044552326, 3.053562641, 2.939941645, 2.710867167, 2.472477198, 2.212401152, 1.231351614, 0.5989533663, 0.1195768714, -0.09896016866, -0.03940080851, 0.4387539625, 0.4416555762, 0.2251038402, -0.04581489414, -0.3394883573, -0.3394883573, -1.266170979, -1.399339557, -1.521665335, -1.678504944, -1.973858356, -2.130850792, -2.377487421, -2.657721996, -2.900082827, -3.109151363, -2.426051378, -1.936748266, -1.5621351, -0.6227771044, -0.5685628057, -1.089783549, -1.207985997, -1.16140759, -1.064585447, -0.9056077003, 0.1623374373, 0.4190535545, 0.6130032539, 0.787252605]","[2.986672878, 2.986672878, 0.01328631863, -0.3123048544, 0.08353582025, 0.31047225, 0.4610505402, 0.6817256212, 0.6009386778, 0.05818491429, -0.1992947906, -0.1484402567, -0.1817324162, -0.5650503635, -0.6951646209, -0.5731443167, -0.275958389, 0.1221730486, 0.9592111707, 1.188896537, 1.171486855, 0.9544769526, 0.6400340796, 0.2139555514, 0.3043636084, 0.8590292335, 1.770134807, 2.263713837, 1.864055276, 1.430341005, 1.091463447, 0.5447390676, -0.236099422, -0.4702135324, 0.4639521539, 1.194699645, 1.407891631, 1.016937971, -0.2342668176, -1.799609065, -2.052812576, -2.158645153, -2.108248711, -1.937511802, -1.481500983, -1.085049391, -0.743881166, -0.5676465034, -0.4859432876, -0.2096794993, -0.2170098722, -0.0239764601, 0.3750712574, 0.6061310172, 1.127810001, 1.012509108, 0.4999932051, -0.04627304152, -0.05283984542, 0.8258898258, -0.04138612002, -0.2544253767, 0.0720821023, 0.428827405, 0.519540906, 0.4201225638, 0.2043344229, -0.004734205548, -0.1973094791, -0.338724792, -0.6687447429, -0.8935431242, -1.067487001, -1.097877502, -0.972192049, -0.7098253965, -1.207222462, -0.3332269788, 0.6989825368, 1.337947607, 2.611296177, 2.538755894, 1.826945186, 1.107345939, 0.5639813542, 0.4621195495, 1.055117011, 1.565189481, 1.313513041, 0.8155050874, -0.2235766798, -0.2504547536, -0.1348485053, -0.1786780804, -0.3338378668, -0.001832595794, 0.4280638099, 0.8837692738, 1.164614558, 1.259756804, 1.182329655, 0.8672759533, 0.739299655, 0.786030829, 1.089478135, 1.495856285, 1.894904017, 1.680032134, 1.263422012, 0.8723155856, 0.6186537743, 0.4552473128, -0.1459967941, -0.8304712772, -0.488081336, 0.783434689, 1.014341712, -0.2854267955, -1.766622305, -2.644741058, -2.888781786, -2.836552858, -2.773328304, -2.584112644, -2.317775488, -1.765095115, -1.090852618, -1.090852618, -0.5595525503, -0.408821553, -0.3518583775, -0.5549710989, -0.7145596147, -0.4103487432, -0.2553416789, -0.3436116874, -0.4851797223, -0.02916881628, -0.4558582008, -1.02732265, -1.143997908, -0.8080220222, -0.07727445662, 0.0479529202, 0.02260201424, -0.06856962293, -0.2664899528, -0.8710938692, -1.086881995, -1.298699498, -1.567022085, -1.808619261, -2.030057907, -2.008066893, -1.931097746, -1.838246226, -1.803121448, -2.094046116, 0.9143125415, 1.936595559, 2.17590189, 1.883602977, 1.047175765, -0.4767803252, -0.8584184051, -1.236544013, -1.768302202, -1.83290112, -1.104749799, -1.443474531, -1.731650233, -1.85092175, -1.829236031, -2.152841806, -2.410626888, -2.599078894, -2.617404938, -2.522567987, -2.337781191, -2.281276226, -2.137264729, -2.058005095, -2.159561396, -2.262339354, -1.935068369, -1.363909364, -0.8468119502, -0.3326161206, -0.02351831272, -0.2971859276, -0.7403686643, -1.37597394, -2.063961029, -2.770579338, -3.752087116, -3.617696762, -2.838843584, -2.231185198, -2.827237129, -4.806593418, -4.760778427, -4.17022419, -3.483000994, -3.124117613, -2.499813318, -1.983937621, -1.801594377, -1.600466967, -1.328173757, -1.020755768, -0.9335548282, -0.7481572032, -0.5575672388, -0.4260784984, -0.2171625942, 0.01007927675, -0.2058615834, -0.5093088746, -0.7533495426, -0.8310821652, -0.1991420686, -0.2315179259, -0.4190535545, -0.5652030706, -0.676838696, -0.676838696, -1.409418821, -1.802510619, -2.307238102, -2.798984528, -3.427106857, -3.683975458, -3.818213224, -3.683212042, -3.193450689, -1.307404399, -0.9332493544, -0.4503603876, 0.9816604257, 2.231185198, 2.48423624, 1.876578093, 0.9124799371, 0.169362396, -0.4637994468, -0.9509644508, -0.814283371, -0.6227771044, -0.6123924255, -0.6861543655]","[-1.623068929, -1.623068929, -0.7609853745, -0.5015203953, -0.04077525437, 0.2930625975, 0.1221730486, -0.2107485086, -0.4818199575, -0.3955352604, -0.4457789063, -0.4178318381, -0.2997821271, 0.1702786833, 0.4320344329, 0.6939429045, 0.9508117437, 1.187369347, 1.582599163, 1.695151091, 1.714851499, 1.682170153, 1.590234995, 1.09696126, 0.7446447611, 0.314748317, -0.2144137025, -0.5865833759, -0.8077165484, -0.7783950567, -0.7533495426, -0.7530441284, -0.767552197, -0.8359690905, -0.6898195744, -0.2199114859, 0.3878994286, 1.002735257, 1.375057697, 1.964084506, 2.213164806, 2.294562578, 2.25684166, 2.183843136, 1.745852828, 1.377806544, 1.038776398, 0.8903360963, 0.9048441648, 1.003346205, 0.9738719463, 0.8611672521, 0.7666358948, 0.7041749358, 0.5447390676, 0.4103487432, 0.2582432926, 0.1246165112, 0.1197295859, 0.8865181804, 1.010218382, 0.8785769343, 0.7389942408, 0.7040221691, 0.204639852, -0.06078109145, -0.3046690524, -0.53481251, -0.7696902156, -0.9772316813, -1.244179845, -1.37444675, -1.517847419, -1.672854424, -1.900096297, -2.918408632, -3.45688653, -3.78079772, -3.719405651, -3.455512047, -2.203849077, -1.863139033, -1.657735586, -1.200044751, -0.6084218025, -0.3014619946, -0.7739662528, -0.7484626174, -0.3092505336, 0.03359758854, 0.2510656118, 0.2628247738, 0.3900374472, 0.570242703, 0.7878634334, 1.288772941, 1.546099901, 1.76326251, 1.945453048, 2.082745075, 2.085035801, 1.685682654, 1.35276103, 0.9413433671, 0.5123631954, 0.02061670274, -0.724180758, -0.80710572, -0.9275988936, -1.079856992, -1.164461851, -1.162781954, -1.11085844, -1.02579546, -0.9332493544, -0.5894849896, 1.009760261, 1.619251013, 2.000431061, 2.273640394, 2.472171545, 2.419179201, 2.179719925, 1.808924675, 1.459357023, 1.166294456, 0.8924741149, 0.8924741149, 0.5975789428, 0.707840085, 0.8381071091, 0.9256135821, 0.9647089243, 0.9161451459, 0.9521862268, 0.9347765446, 0.8181012869, 0.6673702598, 0.7660250068, 0.8074111342, 0.8017606139, 0.7896960378, 0.7389942408, 0.7357872128, 0.6157521605, 0.4676173329, 0.2956587672, -0.1114829108, -0.2916881442, -0.5378668308, -0.8248208165, -1.030987859, -1.396285176, -1.676366925, -2.158797741, -2.790279627, -3.322954178, -3.800803661, -4.047134876, -3.607311964, -2.925586462, -2.22843647, -2.008830309, -1.554346561, -1.206000686, -0.5965099335, -0.3054326177, -0.759763658, -0.9657779336, -0.6342308521, -0.4650211632, -0.3316998184, -0.2988658249, -0.2671008408, -0.1527163088, 0.05253441259, 0.3126102984, 0.5893322229, 1.086423874, 1.244485259, 1.31870532, 1.33886385, 1.261742115, 0.6545420885, 0.2463314086, -0.196851328, -0.673478961, -1.028544307, -1.216385365, -1.470963478, -1.516320229, -1.430799127, -1.306182623, -1.220661521, -1.023352027, -0.8069530129, -0.4463897645, 0.03054326214, 0.551153183, 1.081384182, 1.046259403, 0.9118691087, 0.6244570017, 0.279470861, -0.007941247895, 0.0723875314, 0.1458440721, 0.1866193265, 0.2461786866, 0.5720753074, 0.7874053121, 0.9436340928, 1.050077319, 1.168432474, 1.244485259, 1.188743711, 1.058018565, 0.8875871897, 0.6730207801, 0.44043383, 0.421038866, 0.5198463202, 0.5167919993, 0.4566217661, 0.3258966208, 0.3258966208, -0.08781187981, -0.200821951, -0.2777909636, -0.3692680299, -0.6530149579, -0.8445212245, -1.020603061, -1.15728426, -1.304502726, -2.232712507, -2.916728735, -3.4497087, -3.821114779, -3.535229921, -2.859002113, -2.65497303, -2.143526077, -1.573894262, -1.047633886, -0.6707300544, -0.625526011, -1.043663263, -0.9779952765, -0.6003278494]"
2,2,running,2_running,250,15.3601226,17.8501226,"[4.948955536, 3.139383316, 1.65762794, 0.1890329868, -0.4109672904, -0.02333002165, 0.8027920127, 1.677368641, 2.225325108, 3.529413462, 3.547359467, 2.422134638, -0.07118647546, -1.595414519, -1.595414519, 0.4061816335, 0.9888339639, 0.9074779749, 1.540379524, 1.540379524, 4.299902439, 5.429912567, 6.078966141, 6.881757736, 7.841279984, 6.737590313, 5.892325878, 4.798805714, 4.337589264, 4.566103935, 4.566103935, 5.468197823, 1.715055585, -4.664209366, -10.87358475, -8.914461136, -4.951946259, -2.042872429, 0.4289134443, 0.3535395563, 0.3535395563, 12.24287701, 11.09731293, 6.130411625, 3.626920938, 1.308275819, 1.067797065, 1.232303619, 1.244267821, 0.8027920127, -0.7286145091, -1.344766378, -1.829911113, -1.783849239, -1.293320656, -0.01316052489, 1.506281853, 3.245863914, 4.202992916, 4.687539577, 8.343772888, 7.387839794, 5.310869694, 3.755535126, 2.768495798, 1.258026481, -0.9661021233, -1.372283816, -1.281954765, -2.305484533, -2.270190477, -3.454039574, -4.012165546, -1.667797327, 2.108076811, 4.234697819, 4.234697819, 2.74396944, 0.4977070987, -1.342971683, -2.307279348, -3.318246841, -3.318246841, -3.739383698, -3.789632797, -3.375674486, -3.375674486, 0.1740778536, 2.360519648, 4.197010994, 5.383851051, 5.708676815, 5.471786976, 4.758127689, 3.336193085, 2.14995122, 2.268395901, 2.865405083, 3.588635683, 3.077768087, 2.593819857, 2.933002472, 2.933002472, 4.216751575, 4.547559261, 4.874777794, 5.080560684, 5.080560684, 4.290330887, 4.301098824, 6.105885029, 4.316651821, -4.065405846, -7.858029366, -8.808578491, -8.289336205, -7.503891945, -4.225126743, -1.363310695, 1.398006678, 5.941977024, 12.60658646, 13.11625767, 5.801996708, 4.781457901, 5.0793643, 5.052444935, 3.811766386, 0.694516778, -1.089930773, -2.599801779, -3.410370588, -3.976871252, -2.837289333, -2.837289333, -1.670190215, -1.670190215, -1.670190215, -1.670190215, -0.4971089065, 6.958926678, 9.351150513, 7.286144733, 5.606383324, 3.236292601, 0.109471634, -1.192822099, -3.094517946, -3.448057413, -2.120040894, -8.803792953, -11.25045395, -5.935396671, 0.0185443759, 1.723430514, 3.632304668, 3.632304668, 4.283750534, 4.028316975, 3.16032052, 0.8632107973, -0.6915257573, -1.505683661, -1.55892396, -1.138385415, 0.5102694035, 1.479960799, 2.382055044, 3.050250769, 3.437289715, 4.112065792, 3.690330744, 2.402992249, 1.037886858, -0.08913264424, -0.793818891, 0.865005374, 1.925025821, 2.312064886, 2.310270309, 1.866401672, 4.560121536, 6.044270039, 6.345167637, 5.65304327, 4.91366148, 4.467998028, 4.331607342, 3.946362734, 4.612165451, 6.061617851, 8.465806961, 5.492724419, -1.60977149, -9.106484413, -13.0761776, -4.817350388, -4.782055855, -4.286741734, -3.476173162, -2.961716175, 0.1387837082, 7.301100254, 7.328617573, 6.008377552, 5.276772022, 4.640879631, 3.699303865, 3.012563705, 2.410768747, 1.760519266, 1.130608678, -0.2709871531, -0.8835497499, -1.386042476, -1.521237016, -1.564906001, -1.033699393, -0.2829512656, 0.6586244106, 1.357328653, 1.639681697, 0.27577281, 0.03110669367, -0.142971158, -0.5030909777, -0.9828519225, -1.435693622, -1.837687731, -3.166900873, -3.573680639, -1.909472466, -0.6239284873, -4.520640373, -3.485744476, -2.304886341, -1.543968797, -0.7124629617, 2.111665964, 3.686143398, 4.572684288, 5.775077343, 6.948158741, 7.250252724, 5.258825779, 3.229114056, 1.68275249, 0.17587246, -1.900499344, -2.288734913]","[-10.91725349, -11.24566841, -11.99282742, -13.5714922, -15.74417496, -15.42533112, -14.55972767, -13.81974697, -13.4721899, -11.33300591, -9.814760208, -8.653044701, -7.51346302, -6.263213158, -6.263213158, -4.691128731, -4.031308174, -3.521636724, -2.449652195, -2.449652195, 0.4444667995, 1.282552958, 1.816750646, 1.538584948, 0.4749752879, -0.9320043921, -2.151745796, -3.82731986, -6.089733601, -9.815358162, -9.815358162, -22.35614204, -25.49732018, -30.64129066, -34.69234085, -29.07459068, -25.58585358, -23.77508545, -22.3758831, -22.00738716, -22.00738716, -13.93819237, -15.15554047, -15.52044582, -13.32622719, -11.14277649, -10.22991467, -9.429515839, -8.499904633, -7.165905476, -4.354339123, -3.512663603, -3.393022537, -3.323630571, -2.563909531, -0.5718846321, 0.7256234884, 1.848455548, 2.264208317, 2.139781713, -2.017149448, -3.284747362, -2.833101988, -1.920838356, -1.200598717, -1.029511929, -2.208575249, -3.574877024, -5.952744484, -11.68534946, -17.23490334, -29.97967529, -35.59204102, -33.13939667, -24.08794785, -16.77667809, -16.77667809, -9.576076508, -11.577672, -13.84606838, -15.17587948, -18.39961052, -18.39961052, -18.12623024, -17.75055695, -16.88016701, -16.88016701, -12.31585789, -10.99382401, -9.550951958, -8.58784008, -7.93878746, -6.395416737, -5.535196781, -4.923232555, -4.617549419, -4.010969162, -1.892722726, -1.118046403, -0.8853443861, -0.3571287692, 0.111864455, 0.111864455, 0.813559711, 0.5174478889, -0.290129751, -1.843669891, -1.843669891, -8.277371407, -9.466006279, -13.44885921, -19.92682838, -27.51147842, -32.33062363, -33.83869934, -30.68136978, -27.5844593, -23.01536369, -21.41875458, -19.87598038, -18.13340759, -16.6905365, -16.04447365, -13.48594856, -12.18724346, -11.51545906, -11.03988552, -10.01695347, -6.562914371, -5.114658356, -3.716651678, -2.940180779, -2.489732027, -1.585843205, -1.585843205, 0.3499503136, 0.3499503136, 0.3499503136, 0.3499503136, 1.439880967, 5.922235966, 3.239881754, -0.4719842672, -1.93340075, -2.669791937, -1.436890006, -3.162115097, -8.46102047, -15.94995785, -23.54896355, -42.61916351, -49.92624283, -35.84089279, -20.71526337, -12.56889915, -7.517650604, -7.517650604, -6.872784615, -8.775676727, -11.36291695, -14.68834209, -14.77687645, -14.4825592, -14.34616852, -14.02493191, -12.23868942, -11.40239811, -10.63609695, -9.675976753, -8.852247238, -7.390830994, -6.787241459, -6.180062771, -5.906084538, -5.678766251, -5.369493961, -4.320839405, -3.577269793, -3.256033421, -3.083152056, -2.866601467, -2.015953064, -1.956132531, -1.372882009, -0.9188438654, -1.20179522, -2.37786746, -3.538386583, -5.624927998, -7.500900745, -10.65942669, -23.97727966, -25.32084846, -27.15853691, -29.82593536, -29.7798748, -23.43111801, -23.4795723, -23.14577293, -22.55295181, -21.31586266, -19.60918236, -16.43330765, -14.89651775, -14.22353554, -12.81894875, -12.22852039, -11.0368948, -10.02532864, -8.395217896, -7.239484787, -6.302694798, -4.081557274, -3.24466753, -2.429911375, -1.575075507, -0.6939185858, 0.8428717852, 1.570888042, 2.393420935, 3.429512978, 4.146163464, 3.131008387, 2.51844573, 2.017149448, 1.449452281, 0.5760720372, -2.315055847, -4.846064091, -9.826724052, -15.856637, -24.07897377, -32.67698288, -41.58187485, -26.31805801, -15.81416512, -11.19781208, -9.532406807, -10.11266708, -10.71087265, -12.27936745, -13.71924877, -15.55932903, -16.89392662, -16.41057587, -15.80698681, -14.79123306, -13.61516094, -12.11785221, -11.40120125]","[3.223132133, 2.657827854, 2.385644197, 2.376072884, 1.439282775, 0.8446664214, 0.628115952, 0.9002995491, 0.04307080805, -2.87318182, -3.994219303, -6.57966423, -12.90389442, -16.13300896, -16.13300896, -5.011766911, -1.763510346, 0.0197407864, 1.034895778, 1.034895778, -0.9649057388, -1.439880967, -1.488335729, -1.089332461, 0.2733799815, 0.5700899959, 0.7381857634, 0.9290133715, 0.926620543, 0.4965106845, 0.4965106845, 5.135595798, 11.94317627, 14.55075455, 8.118846893, -7.118647575, -7.892725468, -6.135197163, -3.486342669, -2.430509567, -2.430509567, 5.50109911, 3.164507866, -1.411765337, -2.747558594, -1.118644595, -0.7088736892, -1.067198873, -0.7070791125, -0.4791627228, -0.02033899166, 0.4929214716, 0.6221339107, 0.3649054468, 0.5940182209, 0.5688936114, 0.2877369225, 0.670588553, 0.7447660565, -1.066002488, -2.625524759, 0.7226324677, 1.301097274, 1.75334084, 2.525026083, 1.270588875, -2.686541557, -2.830111027, -2.299502611, -1.26341033, 1.510469317, 3.125026464, 1.759322882, 2.152343988, 3.273979664, 4.670191765, 4.670191765, 1.829911113, 2.079961061, 3.096910715, 3.393022537, 3.443870068, 3.443870068, 1.131805062, 0.06340979785, -0.4743770957, -0.4743770957, -0.7890332937, -1.714457393, -4.375276089, -7.194619656, -8.092526436, -4.636692047, -2.291725874, -0.07537391037, -1.617548108, -5.173880577, -5.812166214, -5.301896572, -5.028516769, -4.108476639, -2.894717216, -2.894717216, -0.8865407705, -0.1740778536, 0.1728814393, 0.3403790295, 0.3403790295, 3.491726398, 4.411766529, 4.8376894, 6.404987812, 12.16211891, 7.60319376, -3.586841106, -9.79083252, -11.06441212, -4.734199524, -2.404188633, 0.6520441771, 4.697110653, 2.947957516, -0.006580262445, -1.97826612, -1.877169371, -1.698305845, -1.231705427, -0.8769695163, -0.5437689424, -1.012163997, -1.228714466, -1.171286702, -0.7310073376, -0.8398807645, -0.8398807645, 0.342173636, 0.342173636, 0.342173636, 0.342173636, -0.03888336942, -1.819143414, 1.05523479, 3.566502094, 2.094916344, 0.1561316848, -5.220541, -6.548557281, -4.396213531, 2.210369825, 5.265406132, 0.3541377485, 2.175075769, -0.9661021233, 0.8913264275, 1.80658114, 0.9218349457, 0.9218349457, 1.943570137, 3.089133978, 3.519842148, 1.574477315, 0.993021369, 0.4319044948, 0.08733802289, 0.09631111473, 0.1136590764, -0.3655036688, -1.022931695, -1.435693622, -1.486541033, -0.9332008362, -1.060618639, -1.841875196, -2.980260611, -5.070989609, -8.629714966, -11.56630611, -9.369096756, -6.430112839, -1.942373753, 1.572084427, -0.1555334777, -1.88255322, -1.75334084, -0.9056833982, -0.1537388563, 1.834098577, 2.894119024, 3.616751432, 3.712464333, 3.152543783, 4.71924448, 13.21795273, 17.59382629, 14.58425426, 8.339585304, -9.243474007, -8.386843681, -6.591628075, -4.841876507, -2.868994236, 1.588235974, 2.076371908, -1.059422255, -3.952943087, -3.649652719, -3.246462107, -2.624328136, -1.466800332, -0.5150550604, -0.1657029688, 0.6951149702, 1.206580877, 1.171286702, 1.006780148, 0.446859628, 0.366101861, 1.138983607, 1.175474167, 1.32801652, 1.801795483, 2.06560421, 1.259222865, 0.4498506486, -0.5114658475, -1.65164578, -2.870190859, -5.806782246, -6.767500877, -7.939385414, -4.201198578, 2.069193363, 4.930410862, 5.663811207, 2.536990166, -0.1639083475, -1.309472203, -1.142572761, 0.109471634, 1.064806104, 1.780858278, 2.605185747, 3.100499868, 3.055036306, 1.987239242, 0.8626125455, -0.24765715, -0.2267199457, -0.4456632137, -1.00737834]","[0.8982773423, 1.089630842, 1.089630842, 1.750434399, 2.02013135, 2.358550787, 2.659096479, 2.883131266, 2.985451221, 3.043941498, 3.039970875, 2.93093133, 1.860084653, 0.6849326491, -0.3034473062, -0.9946413636, -1.436602354, -1.564884067, -1.445918083, -1.357342601, -1.351539373, -1.38009727, -1.500285029, -1.698205352, -1.907274008, -2.037082911, -2.142762661, -2.624277115, -2.997973919, -3.367394686, -3.600897789, -3.253010035, -2.417651892, -1.668425679, -0.8063421249, -0.4340197444, -0.6844745278, -1.044732332, -1.052520871, -1.011287451, -0.9735664725, -0.7982481718, -0.2183843255, 0.4440990388, 0.4627304375, 0.5456553698, 0.6980662346, 0.8918632865, 1.242958069, 1.380860925, 1.403921008, 1.319468975, 1.17377758, 0.8417723179, 0.7026477456, 0.5758932233, 0.4399756789, 0.2997821271, 0.2330450863, 0.1345430762, -0.2058615834, -0.4696026444, -0.3869831264, -0.2431243658, 0.03955352306, 0.1892155111, 0.2956587672, 0.2295326144, 0.1194241568, 0.1449277848, -0.3315471113, -1.007622242, -1.685529947, -1.781893969, -0.3529273868, 0.3376557529, 0.7904596329, 1.14491415, 1.278388262, 1.377043009, 1.729970336, 2.17376399, 2.537381411, 2.799748182, 3.044552326, 3.053562641, 2.939941645, 2.710867167, 2.472477198, 2.212401152, 1.231351614, 0.5989533663, 0.1195768714, -0.09896016866, -0.03940080851, 0.4387539625, 0.4416555762, 0.2251038402, -0.04581489414, -0.3394883573, -0.3394883573, -1.266170979, -1.399339557, -1.521665335, -1.678504944, -1.973858356, -2.130850792, -2.377487421, -2.657721996, -2.900082827, -3.109151363, -2.426051378, -1.936748266, -1.5621351, -0.6227771044, -0.5685628057, -1.089783549, -1.207985997, -1.16140759, -1.064585447, -0.9056077003, 0.1623374373, 0.4190535545, 0.6130032539, 0.787252605, 0.8839219809, 1.115745425, 1.26403296, 1.390023828, 1.458746195, 1.40743351, 1.106582403, 0.916908741, 0.6750060916, 0.4126394689, 0.2200642079, 0.009926560335, -0.04321871698, -0.06047565863, -0.06612616032, -0.06795875728, -0.5862779021, -0.424856782, -0.01740965992, 0.2790127099, 0.4361577928, 0.3472768962, 0.3998112977, 0.2434297949, -0.1594358236, -0.9398161769, -1.849699974, -1.389412999, -0.9634872079, -0.5896376967, -0.2813034356, 0.08063421398, 0.6001750827, 0.817643106, 1.008538485, 1.254564524, 1.528537512, 2.020742178, 2.171931267, 2.227825642, 2.195907831, 2.08350873, 1.777159691, 1.626428723, 1.529606581, 1.539685845, 1.637729764, 1.786170006, 1.81381166, 1.696525455, 1.255480766, 0.4312708676, -0.4972442985, -1.699732542, -1.896889329, -1.707826495, -1.383762479, -1.209818602, -1.572367191, -1.8519907, -2.120618582, -2.359772444, -2.54929328, -2.84632659, -3.014467239, -3.155882597, -3.1542027, -2.688723326, -1.958281279, -1.225701094, -0.2031126916, 0.3385720551, 0.1566869318, -0.7182248235, -0.8231409192, -0.7539604306, -0.5042692423, -0.07773260027, 0.684169054, 0.6969972253, 0.6510296464, 0.6882924438, 0.770911932, 0.8432994485, 1.152855396, 1.259451389, 1.264185667, 1.263574719, 1.223257661, 1.10673511, 1.005484223, 0.8626944423, 0.7325801253, 0.6455318332, 0.5697845817, 0.5943718553, 0.6638578176, 0.7446447611, 0.7965682745, 0.8556694984, 0.9007207751, 0.9031642675, 0.8310821652, 0.6918048859, 0.07452555746, -0.5128213763, -1.408655286, -2.129934311, -2.077247381, -1.113301873, -0.9332493544, -0.692568481, -0.4757113159, -0.2646573782, 0.0833831057, 0.9028588533, 1.241430879, 1.556331873, 1.861001015, 2.185523033, 2.468811989, 2.46514678, 2.4729352, 2.446515322, 2.347707748]","[-1.765095115, -1.090852618, -1.090852618, -0.5595525503, -0.408821553, -0.3518583775, -0.5549710989, -0.7145596147, -0.4103487432, -0.2553416789, -0.3436116874, -0.4851797223, -0.02916881628, -0.4558582008, -1.02732265, -1.143997908, -0.8080220222, -0.07727445662, 0.0479529202, 0.02260201424, -0.06856962293, -0.2664899528, -0.8710938692, -1.086881995, -1.298699498, -1.567022085, -1.808619261, -2.030057907, -2.008066893, -1.931097746, -1.838246226, -1.803121448, -2.094046116, 0.9143125415, 1.936595559, 2.17590189, 1.883602977, 1.047175765, -0.4767803252, -0.8584184051, -1.236544013, -1.768302202, -1.83290112, -1.104749799, -1.443474531, -1.731650233, -1.85092175, -1.829236031, -2.152841806, -2.410626888, -2.599078894, -2.617404938, -2.522567987, -2.337781191, -2.281276226, -2.137264729, -2.058005095, -2.159561396, -2.262339354, -1.935068369, -1.363909364, -0.8468119502, -0.3326161206, -0.02351831272, -0.2971859276, -0.7403686643, -1.37597394, -2.063961029, -2.770579338, -3.752087116, -3.617696762, -2.838843584, -2.231185198, -2.827237129, -4.806593418, -4.760778427, -4.17022419, -3.483000994, -3.124117613, -2.499813318, -1.983937621, -1.801594377, -1.600466967, -1.328173757, -1.020755768, -0.9335548282, -0.7481572032, -0.5575672388, -0.4260784984, -0.2171625942, 0.01007927675, -0.2058615834, -0.5093088746, -0.7533495426, -0.8310821652, -0.1991420686, -0.2315179259, -0.4190535545, -0.5652030706, -0.676838696, -0.676838696, -1.409418821, -1.802510619, -2.307238102, -2.798984528, -3.427106857, -3.683975458, -3.818213224, -3.683212042, -3.193450689, -1.307404399, -0.9332493544, -0.4503603876, 0.9816604257, 2.231185198, 2.48423624, 1.876578093, 0.9124799371, 0.169362396, -0.4637994468, -0.9509644508, -0.814283371, -0.6227771044, -0.6123924255, -0.6861543655, -0.6455318332, -0.8633053303, -1.168279767, -1.3486377, -1.450346828, -1.579850197, -1.654070377, -1.578017592, -1.563662291, -1.809077382, -2.049605608, -2.592664719, -2.903900623, -3.031571388, -2.985756636, -2.841439724, -1.075733662, 0.09544769675, 0.7695375085, 0.9337075353, 0.810923636, -0.8455902338, -2.06289196, -2.576782227, -1.412320495, -0.6348416805, -1.371239781, -3.057075024, -4.051869392, -3.993989706, -3.784157515, -3.648545504, -3.132975101, -2.598162651, -1.760819077, -1.13666749, -0.9428704977, -0.8110763431, -0.8246681094, -0.8761335015, -0.8659014702, -0.8058840036, -0.8646797538, -1.107651353, -1.354899168, -1.495703578, -1.490511179, -1.158658624, -0.9906707406, -0.7108944058, -0.4670064747, -0.3159700334, -0.3914119005, -1.027017236, -1.303891897, -1.415069342, -1.631162882, -1.935679197, -2.143678904, -2.070985794, -2.101529121, -2.249358654, -2.559372663, -3.167947054, -3.302643061, -3.423136234, -3.498425245, -4.000251293, -1.544420004, 0.3113885522, 1.036791086, 1.164309144, 0.5279402733, -0.2988658249, -0.6725626588, -1.134224057, -1.265407324, -0.9694431424, -0.4731151462, -0.6302602291, -0.7953465581, -0.837954402, -0.9769262671, -1.199281216, -1.318858027, -1.302212, -1.278235555, -1.210276723, -1.227533698, -1.44301641, -1.603215814, -1.783268332, -1.895362139, -1.911244631, -1.839468002, -1.727068782, -1.471421719, -1.118799686, -0.7127270103, 0.04550946131, 0.29138273, 0.3904955983, 0.3477350473, 0.1594358236, -0.5510004759, -1.05878222, -0.8486445546, 0.1249219403, 0.802524209, 1.053284407, 0.4204280078, -0.4813618064, -1.329395533, -1.972178459, -2.46056509, -2.727818727, -2.576629639, -2.311055899, -2.004707098, -1.712407947, -1.476613998, -1.484860659, -1.524872422, -1.244332552, -0.8483390808]","[1.166294456, 0.8924741149, 0.8924741149, 0.5975789428, 0.707840085, 0.8381071091, 0.9256135821, 0.9647089243, 0.9161451459, 0.9521862268, 0.9347765446, 0.8181012869, 0.6673702598, 0.7660250068, 0.8074111342, 0.8017606139, 0.7896960378, 0.7389942408, 0.7357872128, 0.6157521605, 0.4676173329, 0.2956587672, -0.1114829108, -0.2916881442, -0.5378668308, -0.8248208165, -1.030987859, -1.396285176, -1.676366925, -2.158797741, -2.790279627, -3.322954178, -3.800803661, -4.047134876, -3.607311964, -2.925586462, -2.22843647, -2.008830309, -1.554346561, -1.206000686, -0.5965099335, -0.3054326177, -0.759763658, -0.9657779336, -0.6342308521, -0.4650211632, -0.3316998184, -0.2988658249, -0.2671008408, -0.1527163088, 0.05253441259, 0.3126102984, 0.5893322229, 1.086423874, 1.244485259, 1.31870532, 1.33886385, 1.261742115, 0.6545420885, 0.2463314086, -0.196851328, -0.673478961, -1.028544307, -1.216385365, -1.470963478, -1.516320229, -1.430799127, -1.306182623, -1.220661521, -1.023352027, -0.8069530129, -0.4463897645, 0.03054326214, 0.551153183, 1.081384182, 1.046259403, 0.9118691087, 0.6244570017, 0.279470861, -0.007941247895, 0.0723875314, 0.1458440721, 0.1866193265, 0.2461786866, 0.5720753074, 0.7874053121, 0.9436340928, 1.050077319, 1.168432474, 1.244485259, 1.188743711, 1.058018565, 0.8875871897, 0.6730207801, 0.44043383, 0.421038866, 0.5198463202, 0.5167919993, 0.4566217661, 0.3258966208, 0.3258966208, -0.08781187981, -0.200821951, -0.2777909636, -0.3692680299, -0.6530149579, -0.8445212245, -1.020603061, -1.15728426, -1.304502726, -2.232712507, -2.916728735, -3.4497087, -3.821114779, -3.535229921, -2.859002113, -2.65497303, -2.143526077, -1.573894262, -1.047633886, -0.6707300544, -0.625526011, -1.043663263, -0.9779952765, -0.6003278494, -0.4207334518, -0.4809036553, -0.4656320214, -0.4071416855, -0.2796235681, -0.03237585723, 0.578183949, 0.8547531962, 1.095739484, 1.271974206, 1.371087074, 1.39659071, 1.260825872, 1.041525245, 0.7293730974, 0.3419318199, -0.7391469479, -1.149495721, -1.407738924, -1.672396302, -1.764789701, -1.885893703, -1.808161139, -1.638646007, -1.29961586, -0.9108000994, -0.1757764816, 1.65651381, 1.937359095, 1.952936172, 1.892460585, 1.813200712, 1.400103092, 1.115592599, 0.8475755453, 0.6539312601, 0.5178610086, 0.5006040931, 0.5991060734, 0.712268889, 0.7892379165, 0.8130616546, 0.8364272118, 0.8084801435, 0.7719809413, 0.7577783465, 0.6782131195, 0.3672827184, 0.2105957866, 0.1379028261, 0.1618792862, 0.2385428846, 0.2751947939, 0.1933388561, 0.2067778856, 0.2693915665, 0.334754169, 0.3084869385, -0.05467243865, -0.2209804952, -0.3294090927, -0.4628831446, -0.6436992288, -1.155451655, -1.503797531, -1.964542627, -2.503325701, -3.063489199, -3.830430508, -3.647171021, -3.084563971, -2.439032316, -2.14184618, -1.80296874, -1.390940189, -0.9185886383, -0.6487388611, -0.5331326723, -0.5390886068, -0.4605923891, -0.4040873647, -0.3872885704, -0.3784310222, -0.3735440969, -0.28313604, -0.1953241676, -0.08781187981, 0.03344487399, 0.1884519309, 0.5561928153, 0.7104362845, 0.8318457603, 0.9034696817, 0.9327912331, 0.8796459436, 0.7751879692, 0.5994115472, 0.3961461186, 0.216246292, -0.2058615834, -0.436463207, -0.6337726712, -0.8060367107, -0.9422596693, -0.9657779336, -0.7660250068, -0.4459316432, -0.1525636017, -0.1893682331, 0.2669481039, 0.475558579, 0.6192646623, 0.7791585922, 1.051299095, 1.381319046, 1.670258284, 1.631468296, 1.461342335, 1.214705586, 0.868955791, 0.507170856, 0.4387539625, 0.3750712574, 0.3376557529, 0.3605632186]"
3,2,running,2_running,375,16.6101226,19.1001226,"[5.0793643, 5.052444935, 3.811766386, 0.694516778, -1.089930773, -2.599801779, -3.410370588, -3.976871252, -2.837289333, -2.837289333, -1.670190215, -1.670190215, -1.670190215, -1.670190215, -0.4971089065, 6.958926678, 9.351150513, 7.286144733, 5.606383324, 3.236292601, 0.109471634, -1.192822099, -3.094517946, -3.448057413, -2.120040894, -8.803792953, -11.25045395, -5.935396671, 0.0185443759, 1.723430514, 3.632304668, 3.632304668, 4.283750534, 4.028316975, 3.16032052, 0.8632107973, -0.6915257573, -1.505683661, -1.55892396, -1.138385415, 0.5102694035, 1.479960799, 2.382055044, 3.050250769, 3.437289715, 4.112065792, 3.690330744, 2.402992249, 1.037886858, -0.08913264424, -0.793818891, 0.865005374, 1.925025821, 2.312064886, 2.310270309, 1.866401672, 4.560121536, 6.044270039, 6.345167637, 5.65304327, 4.91366148, 4.467998028, 4.331607342, 3.946362734, 4.612165451, 6.061617851, 8.465806961, 5.492724419, -1.60977149, -9.106484413, -13.0761776, -4.817350388, -4.782055855, -4.286741734, -3.476173162, -2.961716175, 0.1387837082, 7.301100254, 7.328617573, 6.008377552, 5.276772022, 4.640879631, 3.699303865, 3.012563705, 2.410768747, 1.760519266, 1.130608678, -0.2709871531, -0.8835497499, -1.386042476, -1.521237016, -1.564906001, -1.033699393, -0.2829512656, 0.6586244106, 1.357328653, 1.639681697, 0.27577281, 0.03110669367, -0.142971158, -0.5030909777, -0.9828519225, -1.435693622, -1.837687731, -3.166900873, -3.573680639, -1.909472466, -0.6239284873, -4.520640373, -3.485744476, -2.304886341, -1.543968797, -0.7124629617, 2.111665964, 3.686143398, 4.572684288, 5.775077343, 6.948158741, 7.250252724, 5.258825779, 3.229114056, 1.68275249, 0.17587246, -1.900499344, -2.288734913, -2.444268227, -2.374278307, -2.352144718, -1.686341763, -0.9708877802, 0.3332005441, 2.304288149, 3.807579041, 4.331607342, 4.241876125, 3.683750391, 2.54656148, 2.440679073, 3.013161898, 4.708476543, 5.079962254, 4.936393261, 4.110869408, 3.29551506, 1.345962763, 0.9786644578, 0.6496513486, 0.2297109663, 0.2368894368, 1.366899967, -2.377269268, -6.9619174, -9.256035805, -6.954739094, -3.960121393, -0.2009970993, 2.818745136, 3.723232031, 5.91206646, 5.696712494, 6.238088608, 6.227919102, 5.09013176, 3.16032052, 4.064209461, 2.879761934, 0.9379864931, -0.2727817893, -1.173081279, -1.953141451, -3.038286448, -3.320041418, -2.899502754, -1.957328916, -0.6221339107, 2.076371908, 2.823530674, 3.646063566, 3.940979004, 4.383651257, 3.498904943, 1.819741607, 1.092323542, 0.5856433511, 0.08853443712, -1.488933921, -2.507678032, -4.067798615, -3.410370588, -2.82233429, -7.287341595, -5.739185333, -3.134597778, -1.865205288, -0.8434699774, -0.03110669367, 2.635694027, 4.048655987, 4.96450901, 5.291727066, 4.805386066, 1.888535261, 1.178465128, 1.450050473, 1.24965167, 1.322034478, 2.45683074, 2.846860647, 3.28414917, 2.767897606, 0.7722834945, 0.4606183469, 1.191027522, 2.389233351, 2.023131609, 2.038684845, 2.983849764, 2.984447956, 3.427120209, 3.804588079, 4.100699902, 4.332205296, 4.065405846, 3.912265062, 3.783052683, 3.247658491, 2.568695068, 2.26540494, 3.223730326, 5.358726501, 5.268995285, 2.45683074, -6.372086525, -12.25843048, -14.69611835, -11.71944714, -6.901498795, 0.4677968323, 1.442273855, 6.313462734, 8.618349075, 9.31166935, 6.912864685, 4.545166492, 3.653241873, 3.543172121, 1.66600275, -0.8590233326, -2.275574446, -3.281756163]","[-11.51545906, -11.03988552, -10.01695347, -6.562914371, -5.114658356, -3.716651678, -2.940180779, -2.489732027, -1.585843205, -1.585843205, 0.3499503136, 0.3499503136, 0.3499503136, 0.3499503136, 1.439880967, 5.922235966, 3.239881754, -0.4719842672, -1.93340075, -2.669791937, -1.436890006, -3.162115097, -8.46102047, -15.94995785, -23.54896355, -42.61916351, -49.92624283, -35.84089279, -20.71526337, -12.56889915, -7.517650604, -7.517650604, -6.872784615, -8.775676727, -11.36291695, -14.68834209, -14.77687645, -14.4825592, -14.34616852, -14.02493191, -12.23868942, -11.40239811, -10.63609695, -9.675976753, -8.852247238, -7.390830994, -6.787241459, -6.180062771, -5.906084538, -5.678766251, -5.369493961, -4.320839405, -3.577269793, -3.256033421, -3.083152056, -2.866601467, -2.015953064, -1.956132531, -1.372882009, -0.9188438654, -1.20179522, -2.37786746, -3.538386583, -5.624927998, -7.500900745, -10.65942669, -23.97727966, -25.32084846, -27.15853691, -29.82593536, -29.7798748, -23.43111801, -23.4795723, -23.14577293, -22.55295181, -21.31586266, -19.60918236, -16.43330765, -14.89651775, -14.22353554, -12.81894875, -12.22852039, -11.0368948, -10.02532864, -8.395217896, -7.239484787, -6.302694798, -4.081557274, -3.24466753, -2.429911375, -1.575075507, -0.6939185858, 0.8428717852, 1.570888042, 2.393420935, 3.429512978, 4.146163464, 3.131008387, 2.51844573, 2.017149448, 1.449452281, 0.5760720372, -2.315055847, -4.846064091, -9.826724052, -15.856637, -24.07897377, -32.67698288, -41.58187485, -26.31805801, -15.81416512, -11.19781208, -9.532406807, -10.11266708, -10.71087265, -12.27936745, -13.71924877, -15.55932903, -16.89392662, -16.41057587, -15.80698681, -14.79123306, -13.61516094, -12.11785221, -11.40120125, -10.52004433, -9.361320496, -8.179265976, -5.37487793, -4.625924587, -4.396811485, -4.431507587, -4.269991875, -4.0127635, -3.779463291, -3.439682484, -3.553341627, -3.207578659, -2.720639229, -1.496112347, -1.093519926, -1.17068851, -1.574477315, -1.960918188, -4.507479668, -6.365506649, -7.788637638, -9.455238342, -12.81595802, -25.11985207, -28.50449944, -30.14657402, -29.0901432, -24.96790695, -24.4217453, -22.35733795, -20.65364838, -20.15893173, -19.6899395, -17.14158249, -15.43729496, -14.29771328, -13.92203999, -13.47817135, -10.43031406, -9.533005714, -8.032107353, -6.223731518, -4.432703972, -3.385843992, -1.987837434, -1.873580098, -1.56191504, -0.9170492887, 0.2697907388, 2.515454769, 3.166302681, 4.083351612, 4.332803726, 4.765306473, 2.419143677, 0.6101697683, -0.09092725813, -0.4737788737, -0.8961120844, -3.893122435, -8.087141991, -14.59980774, -21.10290146, -29.51786041, -41.38805389, -32.06202698, -21.30270195, -15.44088459, -12.43250847, -10.50927734, -9.641879082, -10.09950638, -10.13121128, -10.96092224, -13.8173542, -18.92842293, -19.83650017, -19.03490448, -18.47617912, -17.74457359, -13.74437332, -12.55214977, -11.30369377, -9.640084267, -8.218149185, -6.637091637, -5.817550182, -4.736592293, -4.491328239, -3.63589406, -1.748555183, -0.9224331379, 0.2207378894, 1.088734269, 1.414756417, 1.052842021, 0.5718846321, -0.08255238086, -0.955334425, -2.065006018, -3.643072367, -7.188039303, -9.574281693, -14.76132298, -19.97109604, -21.68794632, -29.01297379, -35.21577072, -36.64368439, -29.80858803, -25.1246376, -22.90409851, -21.6849556, -19.11027718, -18.30030823, -17.42991829, -16.67079544, -16.31605911, -13.86102295, -11.23370457, -8.852845192, -5.272584915, -3.835096598, -2.433500528]","[-1.698305845, -1.231705427, -0.8769695163, -0.5437689424, -1.012163997, -1.228714466, -1.171286702, -0.7310073376, -0.8398807645, -0.8398807645, 0.342173636, 0.342173636, 0.342173636, 0.342173636, -0.03888336942, -1.819143414, 1.05523479, 3.566502094, 2.094916344, 0.1561316848, -5.220541, -6.548557281, -4.396213531, 2.210369825, 5.265406132, 0.3541377485, 2.175075769, -0.9661021233, 0.8913264275, 1.80658114, 0.9218349457, 0.9218349457, 1.943570137, 3.089133978, 3.519842148, 1.574477315, 0.993021369, 0.4319044948, 0.08733802289, 0.09631111473, 0.1136590764, -0.3655036688, -1.022931695, -1.435693622, -1.486541033, -0.9332008362, -1.060618639, -1.841875196, -2.980260611, -5.070989609, -8.629714966, -11.56630611, -9.369096756, -6.430112839, -1.942373753, 1.572084427, -0.1555334777, -1.88255322, -1.75334084, -0.9056833982, -0.1537388563, 1.834098577, 2.894119024, 3.616751432, 3.712464333, 3.152543783, 4.71924448, 13.21795273, 17.59382629, 14.58425426, 8.339585304, -9.243474007, -8.386843681, -6.591628075, -4.841876507, -2.868994236, 1.588235974, 2.076371908, -1.059422255, -3.952943087, -3.649652719, -3.246462107, -2.624328136, -1.466800332, -0.5150550604, -0.1657029688, 0.6951149702, 1.206580877, 1.171286702, 1.006780148, 0.446859628, 0.366101861, 1.138983607, 1.175474167, 1.32801652, 1.801795483, 2.06560421, 1.259222865, 0.4498506486, -0.5114658475, -1.65164578, -2.870190859, -5.806782246, -6.767500877, -7.939385414, -4.201198578, 2.069193363, 4.930410862, 5.663811207, 2.536990166, -0.1639083475, -1.309472203, -1.142572761, 0.109471634, 1.064806104, 1.780858278, 2.605185747, 3.100499868, 3.055036306, 1.987239242, 0.8626125455, -0.24765715, -0.2267199457, -0.4456632137, -1.00737834, -1.926820397, -2.723630428, -3.448655605, -4.912465096, -5.910272121, -6.401997089, -5.906084538, -4.850849628, -3.022733212, -2.130808592, -1.364507079, -0.9918249846, -1.167099237, -1.664208174, -2.823530674, -3.690928936, -3.634697676, -2.66799736, -1.490728498, 1.368096352, 1.565504193, 1.713261008, 1.840080619, 2.024327993, 8.137392044, 10.06002426, 4.271188259, -0.35174492, -4.066003799, -6.086144447, -5.033900738, -3.163311481, -2.562713146, -3.034697294, 0.394815743, -1.129412293, -4.29691124, -4.054637909, -2.613560438, -1.59003067, -0.5976074338, -0.6047859192, -0.6556333899, -0.8967102766, -0.7782655358, -0.2895315289, -0.2279163599, -0.3008974493, 0.05144568533, 0.9457631707, 2.636292458, 3.491128206, 3.945166349, 3.12921381, 2.152343988, -1.620539188, -2.562713146, -3.05324173, -3.139383316, -2.971287489, -3.824927092, -5.148158073, -1.747956991, 3.47557497, 3.759722471, 1.171884894, 0.08793623, -0.4701896608, -0.1740778536, -0.4576273263, -0.2889333367, 2.197209358, 3.55992198, 4.961517811, 6.044270039, 5.809175014, 4.639683247, 2.864208698, 2.573480844, 2.72961235, 0.4935196638, -3.00538516, -3.762713671, -5.136792183, -10.19940662, -16.57149315, -10.81675434, -5.632106304, -0.879960537, 0.4127618968, -1.60678041, -1.768295884, -1.499701619, -2.056032896, -2.288734913, -2.400001049, -1.094118118, -0.7393822074, -0.9786644578, -1.439880967, -1.668993831, -1.949552298, -1.427318692, -0.8644071817, -0.7166503668, 1.261017561, 5.946164131, 11.30070305, 6.766304016, -1.565504193, -6.610172749, -9.607182503, -5.575874805, -3.002394199, -0.06101697683, 3.08973217, 3.260818958, -1.307079315, -1.644467354, -2.494517565, -1.75034976, -0.104685992, 1.000199914, 0.5778666735, -0.2452643216]","[0.8839219809, 1.115745425, 1.26403296, 1.390023828, 1.458746195, 1.40743351, 1.106582403, 0.916908741, 0.6750060916, 0.4126394689, 0.2200642079, 0.009926560335, -0.04321871698, -0.06047565863, -0.06612616032, -0.06795875728, -0.5862779021, -0.424856782, -0.01740965992, 0.2790127099, 0.4361577928, 0.3472768962, 0.3998112977, 0.2434297949, -0.1594358236, -0.9398161769, -1.849699974, -1.389412999, -0.9634872079, -0.5896376967, -0.2813034356, 0.08063421398, 0.6001750827, 0.817643106, 1.008538485, 1.254564524, 1.528537512, 2.020742178, 2.171931267, 2.227825642, 2.195907831, 2.08350873, 1.777159691, 1.626428723, 1.529606581, 1.539685845, 1.637729764, 1.786170006, 1.81381166, 1.696525455, 1.255480766, 0.4312708676, -0.4972442985, -1.699732542, -1.896889329, -1.707826495, -1.383762479, -1.209818602, -1.572367191, -1.8519907, -2.120618582, -2.359772444, -2.54929328, -2.84632659, -3.014467239, -3.155882597, -3.1542027, -2.688723326, -1.958281279, -1.225701094, -0.2031126916, 0.3385720551, 0.1566869318, -0.7182248235, -0.8231409192, -0.7539604306, -0.5042692423, -0.07773260027, 0.684169054, 0.6969972253, 0.6510296464, 0.6882924438, 0.770911932, 0.8432994485, 1.152855396, 1.259451389, 1.264185667, 1.263574719, 1.223257661, 1.10673511, 1.005484223, 0.8626944423, 0.7325801253, 0.6455318332, 0.5697845817, 0.5943718553, 0.6638578176, 0.7446447611, 0.7965682745, 0.8556694984, 0.9007207751, 0.9031642675, 0.8310821652, 0.6918048859, 0.07452555746, -0.5128213763, -1.408655286, -2.129934311, -2.077247381, -1.113301873, -0.9332493544, -0.692568481, -0.4757113159, -0.2646573782, 0.0833831057, 0.9028588533, 1.241430879, 1.556331873, 1.861001015, 2.185523033, 2.468811989, 2.46514678, 2.4729352, 2.446515322, 2.347707748, 2.256383419, 2.24492979, 2.198351383, 2.067320824, 1.852754235, 1.185078621, 0.8187121153, 0.5080871582, 0.2460259795, 0.02107485011, -0.3217732608, -0.4056145251, -0.460745126, -0.5216789246, -0.6296493411, -0.8306240439, -1.737606168, -2.265851974, -2.710714579, -3.025462866, -3.20215559, -3.515376806, -3.65648675, -3.70138526, -3.37075448, -2.731178522, -1.756237626, -1.425301313, -1.455844641, -1.667051196, -1.790751457, -1.457219005, -1.306640744, -1.152397275, -0.9902125597, -0.7875580192, -0.2469422817, -0.06490442902, 0.1212567538, 0.2664899528, 0.4178318381, 0.8794932365, 1.064738154, 1.149343014, 1.142165303, 1.090547204, 1.011440158, 0.8234463334, 0.6652322412, 0.5316054821, 0.4569272101, 0.4589125216, 0.7137960196, 0.8281805515, 0.8626944423, 0.8269588351, 0.648586154, 0.4379903674, 0.5250386596, 0.5650503635, 0.5216789246, 0.5403103232, 0.5836817622, -0.1537853181, -0.8680394888, -1.308167934, -1.449583173, -1.020908594, -0.8723155856, -0.8880453706, -0.7805330753, -0.5322163701, 0.4763221741, 1.038929105, 1.461036921, 1.875356317, 2.407572746, 3.010649443, 3.745214701, 4.010635853, 4.105319977, 4.008650303, 3.83134675, 3.631135702, 3.254689932, 2.229810953, 1.077260852, 0.2825251818, 0.2825251818, -0.2128865421, -0.1939497143, -0.287412107, -0.4587597847, -0.8008443117, -0.9560040832, -1.079704285, -1.172555804, -1.253190041, -1.556026459, -1.796554685, -2.094504118, -2.43368721, -2.752558708, -3.216052771, -3.235142231, -2.792876005, -2.359772444, -2.277763844, -2.035708427, -1.262353063, -1.454775572, -1.584126353, -1.545489073, -1.61268425, -1.526094079, -1.256397128, -0.8843801618, -0.598495245, -0.3181080818, 0.1327104717, 0.2800817192, 0.444404453, 0.7194465399, 1.08199501, 1.480737329]","[-0.6455318332, -0.8633053303, -1.168279767, -1.3486377, -1.450346828, -1.579850197, -1.654070377, -1.578017592, -1.563662291, -1.809077382, -2.049605608, -2.592664719, -2.903900623, -3.031571388, -2.985756636, -2.841439724, -1.075733662, 0.09544769675, 0.7695375085, 0.9337075353, 0.810923636, -0.8455902338, -2.06289196, -2.576782227, -1.412320495, -0.6348416805, -1.371239781, -3.057075024, -4.051869392, -3.993989706, -3.784157515, -3.648545504, -3.132975101, -2.598162651, -1.760819077, -1.13666749, -0.9428704977, -0.8110763431, -0.8246681094, -0.8761335015, -0.8659014702, -0.8058840036, -0.8646797538, -1.107651353, -1.354899168, -1.495703578, -1.490511179, -1.158658624, -0.9906707406, -0.7108944058, -0.4670064747, -0.3159700334, -0.3914119005, -1.027017236, -1.303891897, -1.415069342, -1.631162882, -1.935679197, -2.143678904, -2.070985794, -2.101529121, -2.249358654, -2.559372663, -3.167947054, -3.302643061, -3.423136234, -3.498425245, -4.000251293, -1.544420004, 0.3113885522, 1.036791086, 1.164309144, 0.5279402733, -0.2988658249, -0.6725626588, -1.134224057, -1.265407324, -0.9694431424, -0.4731151462, -0.6302602291, -0.7953465581, -0.837954402, -0.9769262671, -1.199281216, -1.318858027, -1.302212, -1.278235555, -1.210276723, -1.227533698, -1.44301641, -1.603215814, -1.783268332, -1.895362139, -1.911244631, -1.839468002, -1.727068782, -1.471421719, -1.118799686, -0.7127270103, 0.04550946131, 0.29138273, 0.3904955983, 0.3477350473, 0.1594358236, -0.5510004759, -1.05878222, -0.8486445546, 0.1249219403, 0.802524209, 1.053284407, 0.4204280078, -0.4813618064, -1.329395533, -1.972178459, -2.46056509, -2.727818727, -2.576629639, -2.311055899, -2.004707098, -1.712407947, -1.476613998, -1.484860659, -1.524872422, -1.244332552, -0.8483390808, -0.3636175394, -0.4411974251, -0.5499314666, -0.5716171265, -0.4876231849, -0.4914411008, -0.5581781268, -0.5697845817, -0.5207626224, -0.4970915914, -0.5969680548, -0.7782423496, -1.013272762, -1.289383769, -1.538616896, -1.697899938, -1.761429906, -1.74417305, -1.829236031, -1.905441403, -1.817171335, -1.385289669, -1.076039076, -0.6939429045, -0.5296201706, -0.5326744914, 0.821613729, 1.007164121, 1.242499948, 1.242805362, 1.010218382, -0.03512475267, -0.2086104751, -0.5068654418, -0.6162103415, -0.3950771093, -0.4221078753, -0.9062185884, -1.06962502, -1.089630842, -1.246928692, -1.136820197, -1.230893493, -1.440267563, -1.667051196, -1.772120118, -1.702175975, -1.311375022, -1.202793717, -1.104444385, -1.006095052, -0.9711230397, -0.9477574229, -0.7599163651, -0.3368921876, 0.2002110779, 0.7686212063, 1.367421865, 1.252731919, 1.061683774, 0.8657487631, 0.5045747161, -0.7585419416, -0.429132849, 0.4804455042, 0.6678284407, 0.04932736978, -1.519527316, -1.964848042, -2.208735943, -2.490345001, -2.732247591, -2.448653221, -1.800067186, -0.8921687007, -0.06811147183, 0.3216205537, 0.5187773108, 0.04856378585, 0.2658790946, 0.8170322776, 0.8988882303, 0.6075055003, 0.04810563847, 0.2206750661, 0.1956295967, -0.393397212, -0.936609149, -0.936609149, -0.0850629881, 0.09361509979, -0.002748893574, -0.06520986557, -0.1340849251, -0.3365867436, -0.609796226, -0.8936958313, -1.047633886, -0.8842274547, -0.8962920308, -1.047481179, -1.253037333, -1.525635958, -1.72508347, -1.345125318, -1.406211853, -1.293507099, -0.04245513305, 1.514029503, 2.960711241, 2.738050699, 1.781435728, 0.2864958048, -0.7406741381, -1.341307402, -0.8481863737, 0.03863722831, 0.3784310222, 0.2328923792, -0.3278819323, -0.7883216143, -0.8869763613, -0.6620252132, -0.4631885588, -0.5186246037]","[-0.4207334518, -0.4809036553, -0.4656320214, -0.4071416855, -0.2796235681, -0.03237585723, 0.578183949, 0.8547531962, 1.095739484, 1.271974206, 1.371087074, 1.39659071, 1.260825872, 1.041525245, 0.7293730974, 0.3419318199, -0.7391469479, -1.149495721, -1.407738924, -1.672396302, -1.764789701, -1.885893703, -1.808161139, -1.638646007, -1.29961586, -0.9108000994, -0.1757764816, 1.65651381, 1.937359095, 1.952936172, 1.892460585, 1.813200712, 1.400103092, 1.115592599, 0.8475755453, 0.6539312601, 0.5178610086, 0.5006040931, 0.5991060734, 0.712268889, 0.7892379165, 0.8130616546, 0.8364272118, 0.8084801435, 0.7719809413, 0.7577783465, 0.6782131195, 0.3672827184, 0.2105957866, 0.1379028261, 0.1618792862, 0.2385428846, 0.2751947939, 0.1933388561, 0.2067778856, 0.2693915665, 0.334754169, 0.3084869385, -0.05467243865, -0.2209804952, -0.3294090927, -0.4628831446, -0.6436992288, -1.155451655, -1.503797531, -1.964542627, -2.503325701, -3.063489199, -3.830430508, -3.647171021, -3.084563971, -2.439032316, -2.14184618, -1.80296874, -1.390940189, -0.9185886383, -0.6487388611, -0.5331326723, -0.5390886068, -0.4605923891, -0.4040873647, -0.3872885704, -0.3784310222, -0.3735440969, -0.28313604, -0.1953241676, -0.08781187981, 0.03344487399, 0.1884519309, 0.5561928153, 0.7104362845, 0.8318457603, 0.9034696817, 0.9327912331, 0.8796459436, 0.7751879692, 0.5994115472, 0.3961461186, 0.216246292, -0.2058615834, -0.436463207, -0.6337726712, -0.8060367107, -0.9422596693, -0.9657779336, -0.7660250068, -0.4459316432, -0.1525636017, -0.1893682331, 0.2669481039, 0.475558579, 0.6192646623, 0.7791585922, 1.051299095, 1.381319046, 1.670258284, 1.631468296, 1.461342335, 1.214705586, 0.868955791, 0.507170856, 0.4387539625, 0.3750712574, 0.3376557529, 0.3605632186, 0.3316998184, 0.3544545472, 0.4234823287, 0.5334380865, 0.6478226185, 0.8784242272, 0.9166033268, 0.8535314798, 0.7542658448, 0.6777549982, 0.563065052, 0.5842925906, 0.6160575747, 0.5548183322, 0.3949243724, 0.1857030392, -0.3123048544, -0.5201517344, -0.6614143252, -0.8028296232, -0.9462302923, -1.382846236, -1.738675237, -2.184454203, -2.637105227, -3.003319025, -2.765692472, -2.403907537, -2.221869707, -2.050674677, -1.687820673, -1.105666041, -0.9054549932, -0.7596109509, -0.633467257, -0.5093088746, -0.5458080769, -0.4120286107, -0.2055561543, -0.06673702598, -0.1447750628, -0.2805398703, -0.1910481006, -0.08002334833, 0.12996158, 0.3883575797, 0.6647741199, 1.218981624, 1.44561255, 1.578323126, 1.581377387, 1.488831282, 1.110094905, 0.8324565887, 0.4477642179, -0.07055493444, -0.5800165534, -1.078177214, -1.238834739, -1.393841743, -1.536326051, -1.567632914, -1.210734963, -0.8536841869, -0.283441484, 0.2127338201, 0.6771441102, 1.250288486, 1.36360395, 1.544267297, 1.70859015, 1.819156647, 1.778686881, 1.559080839, 1.200655699, 0.864985168, 0.6389650702, 0.5707008839, 0.8220719099, 0.8495608568, 0.9133962393, 0.9995282292, 1.025184631, 0.8991936445, 0.8713992834, 0.8987354636, 0.9036223888, 0.8715519905, 0.8715519905, 0.8732318878, 0.9511171579, 0.9166033268, 0.7822129726, 0.3649919927, 0.08704829961, -0.188910082, -0.4709770977, -0.7220427394, -0.9586002827, -1.029155254, -1.10261178, -1.186147571, -1.321454287, -1.871080279, -2.326785803, -2.791806936, -3.24598527, -3.612962484, -3.7039814, -2.603660345, -1.972178459, -1.50593555, -1.129337072, -0.85765481, -0.2725986242, -0.4352414906, -0.6545420885, -0.8020660877, -0.747240901, -0.4080579877, -0.4228714705, -0.4456261992, -0.4425718784, -0.4237877727, -0.008399397135]"
4,2,running,2_running,500,17.8601226,20.3501226,"[-2.444268227, -2.374278307, -2.352144718, -1.686341763, -0.9708877802, 0.3332005441, 2.304288149, 3.807579041, 4.331607342, 4.241876125, 3.683750391, 2.54656148, 2.440679073, 3.013161898, 4.708476543, 5.079962254, 4.936393261, 4.110869408, 3.29551506, 1.345962763, 0.9786644578, 0.6496513486, 0.2297109663, 0.2368894368, 1.366899967, -2.377269268, -6.9619174, -9.256035805, -6.954739094, -3.960121393, -0.2009970993, 2.818745136, 3.723232031, 5.91206646, 5.696712494, 6.238088608, 6.227919102, 5.09013176, 3.16032052, 4.064209461, 2.879761934, 0.9379864931, -0.2727817893, -1.173081279, -1.953141451, -3.038286448, -3.320041418, -2.899502754, -1.957328916, -0.6221339107, 2.076371908, 2.823530674, 3.646063566, 3.940979004, 4.383651257, 3.498904943, 1.819741607, 1.092323542, 0.5856433511, 0.08853443712, -1.488933921, -2.507678032, -4.067798615, -3.410370588, -2.82233429, -7.287341595, -5.739185333, -3.134597778, -1.865205288, -0.8434699774, -0.03110669367, 2.635694027, 4.048655987, 4.96450901, 5.291727066, 4.805386066, 1.888535261, 1.178465128, 1.450050473, 1.24965167, 1.322034478, 2.45683074, 2.846860647, 3.28414917, 2.767897606, 0.7722834945, 0.4606183469, 1.191027522, 2.389233351, 2.023131609, 2.038684845, 2.983849764, 2.984447956, 3.427120209, 3.804588079, 4.100699902, 4.332205296, 4.065405846, 3.912265062, 3.783052683, 3.247658491, 2.568695068, 2.26540494, 3.223730326, 5.358726501, 5.268995285, 2.45683074, -6.372086525, -12.25843048, -14.69611835, -11.71944714, -6.901498795, 0.4677968323, 1.442273855, 6.313462734, 8.618349075, 9.31166935, 6.912864685, 4.545166492, 3.653241873, 3.543172121, 1.66600275, -0.8590233326, -2.275574446, -3.281756163, -4.290929317, -5.098506927, -5.027918816, -4.378267288, -3.518645763, -2.489732027, -1.360917926, -0.1453639716, 1.128814101, 1.898704767, 4.083351612, 8.531609535, 7.636095047, 3.259622574, 2.081157446, 1.557727575, 0.4115654826, -1.240080357, -3.589832067, -3.579662561, -6.92542696, -8.829515457, -4.565505505, -1.280160069, 0.1304088384, 1.803590059, 3.439084291, 5.031507969, 6.480361938, 5.274977684, 3.573082447, 3.333201885, 2.589034081, 0.6598208547, -0.7800601721, 0.2781656384, 1.064207911, 1.621137381, 2.172683001, 2.511865616, 1.797608018, 0.4953143001, -1.898106575, -4.797609329, -2.109273195, 0.7004988194, 2.664407969, 4.441078663, 4.197010994, 3.437289715, 4.158725739, 5.349154949, 6.068198204, 5.797809124, 3.406183004, 3.202793121, 3.327818155, 3.482155085, 3.407977581, 2.583650351, 3.162713289, 4.328018188, 2.846262455, 0.02572284266, -2.916850805, -11.88395405, -12.38525009, -11.41615677, -9.238089561, -5.171487808, 0.06221338734, 1.141974568, 5.724828243, 10.77847004, 11.16072273, 8.885149002, 4.588835716, 1.123430252, 1.926820397, 1.590628862, -0.7722834945, -1.623530149, -2.020140409, -2.560320139, -2.818146944, -3.491128206, -3.439682484, -2.938386202, -1.73898387, -0.2518445849, 1.613958836, 2.652443886, 3.886542082, 5.509474277, 7.324429989, 6.48933506, 2.971287489, 1.537388563, 0.5850451589, -0.142971158, -0.9182456732, -3.087339401, -4.613361835, -6.095715523, -8.642875671, -9.081958771, -4.649852753, -3.66101861, -1.759322882, 0.7483552694, 2.823530674, 3.600599766, 3.598206997, 3.714258909, 3.597608805, 2.834896564, 1.325623751, 1.497308731, 1.820937991, 2.101496458, 2.477169752, 3.18843627, 3.162115097, 3.15433836, 3.379263878]","[-10.52004433, -9.361320496, -8.179265976, -5.37487793, -4.625924587, -4.396811485, -4.431507587, -4.269991875, -4.0127635, -3.779463291, -3.439682484, -3.553341627, -3.207578659, -2.720639229, -1.496112347, -1.093519926, -1.17068851, -1.574477315, -1.960918188, -4.507479668, -6.365506649, -7.788637638, -9.455238342, -12.81595802, -25.11985207, -28.50449944, -30.14657402, -29.0901432, -24.96790695, -24.4217453, -22.35733795, -20.65364838, -20.15893173, -19.6899395, -17.14158249, -15.43729496, -14.29771328, -13.92203999, -13.47817135, -10.43031406, -9.533005714, -8.032107353, -6.223731518, -4.432703972, -3.385843992, -1.987837434, -1.873580098, -1.56191504, -0.9170492887, 0.2697907388, 2.515454769, 3.166302681, 4.083351612, 4.332803726, 4.765306473, 2.419143677, 0.6101697683, -0.09092725813, -0.4737788737, -0.8961120844, -3.893122435, -8.087141991, -14.59980774, -21.10290146, -29.51786041, -41.38805389, -32.06202698, -21.30270195, -15.44088459, -12.43250847, -10.50927734, -9.641879082, -10.09950638, -10.13121128, -10.96092224, -13.8173542, -18.92842293, -19.83650017, -19.03490448, -18.47617912, -17.74457359, -13.74437332, -12.55214977, -11.30369377, -9.640084267, -8.218149185, -6.637091637, -5.817550182, -4.736592293, -4.491328239, -3.63589406, -1.748555183, -0.9224331379, 0.2207378894, 1.088734269, 1.414756417, 1.052842021, 0.5718846321, -0.08255238086, -0.955334425, -2.065006018, -3.643072367, -7.188039303, -9.574281693, -14.76132298, -19.97109604, -21.68794632, -29.01297379, -35.21577072, -36.64368439, -29.80858803, -25.1246376, -22.90409851, -21.6849556, -19.11027718, -18.30030823, -17.42991829, -16.67079544, -16.31605911, -13.86102295, -11.23370457, -8.852845192, -5.272584915, -3.835096598, -2.433500528, -1.588235974, -1.155135155, 0.3397808075, 0.8069794178, 1.373480201, 2.380260229, 3.769293785, 5.60578537, 7.179664135, 6.782455921, 4.057030678, 1.109671474, -1.736590981, -2.919841766, -2.3216362, -1.805384636, -3.099303484, -7.173682213, -25.11985207, -34.01098251, -42.7059021, -42.97090912, -30.31347275, -15.03530121, -12.04247856, -10.91785145, -10.72104168, -10.09830952, -7.399205685, -9.36550808, -12.90867996, -14.47238922, -15.45464325, -16.26760483, -19.22812462, -17.43769455, -14.90549088, -13.21316624, -11.37129116, -9.03828907, -7.637889862, -6.629314899, -6.009573936, -6.400202274, -5.816353798, -5.416752338, -4.098905087, -2.585444927, -2.018345833, -1.447059512, -0.4510470629, 0.08973085135, 0.5270192027, 0.3206382394, -1.424327731, -2.416750908, -3.671786308, -5.01475811, -6.498906136, -9.631111145, -12.44088268, -16.92802429, -18.50369835, -20.68535423, -23.60878372, -32.09492874, -30.37568665, -26.04168701, -22.42553329, -20.97368813, -20.62014961, -19.50030899, -17.8707962, -18.11247063, -18.42652893, -14.37009621, -14.8396883, -13.66241932, -11.21695423, -9.240483284, -5.676971912, -4.000201225, -2.845066071, -2.191825628, -1.758724689, -2.499303341, -2.419143677, -1.764706731, -0.352343142, 1.296909928, 3.410968781, 4.339384079, 4.544568539, 3.387040377, 1.75334084, -0.5324030519, -1.472184181, -1.322034478, -0.8249256015, -1.184447169, -3.46121788, -13.73061466, -21.80340004, -30.3451786, -36.64069366, -39.2805748, -21.38345909, -15.58385563, -13.06182098, -11.67458153, -11.01416302, -10.98963642, -12.57428265, -13.72642708, -13.91785336, -14.13918877, -15.07717514, -14.82712555, -13.98903942, -13.3902359, -13.39801216, -13.02054405, -13.12941742, -12.82792187, -11.5387888]","[-1.926820397, -2.723630428, -3.448655605, -4.912465096, -5.910272121, -6.401997089, -5.906084538, -4.850849628, -3.022733212, -2.130808592, -1.364507079, -0.9918249846, -1.167099237, -1.664208174, -2.823530674, -3.690928936, -3.634697676, -2.66799736, -1.490728498, 1.368096352, 1.565504193, 1.713261008, 1.840080619, 2.024327993, 8.137392044, 10.06002426, 4.271188259, -0.35174492, -4.066003799, -6.086144447, -5.033900738, -3.163311481, -2.562713146, -3.034697294, 0.394815743, -1.129412293, -4.29691124, -4.054637909, -2.613560438, -1.59003067, -0.5976074338, -0.6047859192, -0.6556333899, -0.8967102766, -0.7782655358, -0.2895315289, -0.2279163599, -0.3008974493, 0.05144568533, 0.9457631707, 2.636292458, 3.491128206, 3.945166349, 3.12921381, 2.152343988, -1.620539188, -2.562713146, -3.05324173, -3.139383316, -2.971287489, -3.824927092, -5.148158073, -1.747956991, 3.47557497, 3.759722471, 1.171884894, 0.08793623, -0.4701896608, -0.1740778536, -0.4576273263, -0.2889333367, 2.197209358, 3.55992198, 4.961517811, 6.044270039, 5.809175014, 4.639683247, 2.864208698, 2.573480844, 2.72961235, 0.4935196638, -3.00538516, -3.762713671, -5.136792183, -10.19940662, -16.57149315, -10.81675434, -5.632106304, -0.879960537, 0.4127618968, -1.60678041, -1.768295884, -1.499701619, -2.056032896, -2.288734913, -2.400001049, -1.094118118, -0.7393822074, -0.9786644578, -1.439880967, -1.668993831, -1.949552298, -1.427318692, -0.8644071817, -0.7166503668, 1.261017561, 5.946164131, 11.30070305, 6.766304016, -1.565504193, -6.610172749, -9.607182503, -5.575874805, -3.002394199, -0.06101697683, 3.08973217, 3.260818958, -1.307079315, -1.644467354, -2.494517565, -1.75034976, -0.104685992, 1.000199914, 0.5778666735, -0.2452643216, -0.0765703246, 0.1770688742, -0.1052841991, -0.4301098585, -0.5814558864, 0.008374879137, 0.7495517135, 1.823929071, 3.586841106, 0.7381857634, -6.185446739, -3.467200041, 0.7585247755, -0.4247260094, -1.344766378, -2.784647465, -4.947160721, -7.177869797, 0.6765705943, 1.329213023, -0.05623133108, -0.7399803996, -0.8392825127, 0.8506484628, 1.526022673, 1.802991867, 1.925624013, 2.055434704, 2.978466034, 4.967499733, 4.292125702, 3.285345554, 4.109074593, 5.293521881, 4.067200184, 2.52682066, 1.81794703, 0.6622136831, -0.6311069727, -3.209971666, -3.769293785, -4.500301361, -5.903691769, -12.66461182, -20.58964157, -13.03430271, -4.743771076, 2.857628345, 5.517848969, 3.531208038, 0.5186443329, -2.331805706, -4.036093712, -5.441278458, -3.814159393, -2.834896564, -2.598007202, -2.093719721, -1.261017561, -0.2542374134, -0.8829515576, -0.2703889608, 2.730808735, 5.286941528, 6.300900459, 2.961117983, -1.779661894, -4.444668293, -7.635497093, -8.803194046, -4.279563427, -1.82632184, -0.1028913707, -0.5928218365, -0.8470591903, 0.7262216806, -3.574278831, -5.510072231, -4.634299278, -2.362912416, -1.616351724, -1.244866014, -0.8033902049, -0.5479564071, -0.1962114573, 0.342173636, -0.2315055877, -0.733400166, -0.6478567123, -0.2051845491, 0.9882357717, 1.917847395, 2.124826431, -0.002392822644, -1.729412556, -1.383649707, -0.8093722463, -0.5168496966, -0.5413761139, -1.341177106, -2.378465652, -1.374676585, 4.33340168, 4.814359188, 4.017549038, 0.6520441771, 0.007178467698, 1.000798106, 0.5736792088, -0.494716078, -0.262014091, 1.239482164, 2.067398787, 2.663809776, 4.137190342, 5.765506268, 6.361917019, 6.177670002, 5.379663467, 4.536791801, 3.513859987, 2.9491539, 1.325025558, -0.2488535494, -2.748754978]","[2.256383419, 2.24492979, 2.198351383, 2.067320824, 1.852754235, 1.185078621, 0.8187121153, 0.5080871582, 0.2460259795, 0.02107485011, -0.3217732608, -0.4056145251, -0.460745126, -0.5216789246, -0.6296493411, -0.8306240439, -1.737606168, -2.265851974, -2.710714579, -3.025462866, -3.20215559, -3.515376806, -3.65648675, -3.70138526, -3.37075448, -2.731178522, -1.756237626, -1.425301313, -1.455844641, -1.667051196, -1.790751457, -1.457219005, -1.306640744, -1.152397275, -0.9902125597, -0.7875580192, -0.2469422817, -0.06490442902, 0.1212567538, 0.2664899528, 0.4178318381, 0.8794932365, 1.064738154, 1.149343014, 1.142165303, 1.090547204, 1.011440158, 0.8234463334, 0.6652322412, 0.5316054821, 0.4569272101, 0.4589125216, 0.7137960196, 0.8281805515, 0.8626944423, 0.8269588351, 0.648586154, 0.4379903674, 0.5250386596, 0.5650503635, 0.5216789246, 0.5403103232, 0.5836817622, -0.1537853181, -0.8680394888, -1.308167934, -1.449583173, -1.020908594, -0.8723155856, -0.8880453706, -0.7805330753, -0.5322163701, 0.4763221741, 1.038929105, 1.461036921, 1.875356317, 2.407572746, 3.010649443, 3.745214701, 4.010635853, 4.105319977, 4.008650303, 3.83134675, 3.631135702, 3.254689932, 2.229810953, 1.077260852, 0.2825251818, 0.2825251818, -0.2128865421, -0.1939497143, -0.287412107, -0.4587597847, -0.8008443117, -0.9560040832, -1.079704285, -1.172555804, -1.253190041, -1.556026459, -1.796554685, -2.094504118, -2.43368721, -2.752558708, -3.216052771, -3.235142231, -2.792876005, -2.359772444, -2.277763844, -2.035708427, -1.262353063, -1.454775572, -1.584126353, -1.545489073, -1.61268425, -1.526094079, -1.256397128, -0.8843801618, -0.598495245, -0.3181080818, 0.1327104717, 0.2800817192, 0.444404453, 0.7194465399, 1.08199501, 1.480737329, 1.426370382, 1.340085626, 1.242194533, 1.097724795, 0.6844745278, 0.5225952268, 0.468380928, 0.5523748994, 0.7683157325, 1.016021609, 0.778853178, 0.1050688252, -0.04291328415, 0.1278235465, 0.3518583775, 0.8237518072, 0.9185886383, 1.036638379, 1.084896684, 0.2379320115, -1.406975389, -1.655750275, -1.734551907, -1.653306842, -1.521512628, -1.1242975, -0.6966918111, -0.2463314086, 0.1588249654, 0.3769038618, 0.7480044961, 1.166905284, 1.613295078, 2.008830309, 2.405434608, 2.984382153, 3.160616875, 3.337767601, 3.534313679, 3.677866936, 3.727957964, 3.67863059, 3.679394007, 3.197879553, 1.90559411, 0.2901609838, -1.736689925, -1.712407947, -1.272126913, -0.8037459254, -0.4531092942, -0.3758348525, -0.5948300362, -1.008843899, -1.492649198, -1.863597155, -2.3414464, -2.553569555, -2.700788021, -2.76996851, -2.813645363, -2.484541655, -2.101834536, -1.990046263, -2.14642787, -2.008066893, -1.060309291, -1.052978992, -1.184009552, -1.341460109, -1.445459843, -1.468061924, -1.018923283, -0.6421720982, -0.5198463202, -0.3425426781, 0.07941248268, 0.25167647, 0.1892155111, 0.3258966208, 0.5600107312, 0.7370089293, 0.9344711304, 0.9546296597, 0.9283624291, 0.9387471676, 0.935998261, 0.6588181853, 0.4824308157, 0.3993531466, 0.4677700698, 0.6307183504, 0.9807441235, 0.9016370773, 0.6075055003, 0.3045163155, 0.1812742651, 0.2402227521, 0.3533855379, 0.4372268021, 0.597884357, 0.8164213896, 0.8794932365, -0.5555819273, -0.7614435554, -0.5603161454, -0.4428772926, -0.5164865851, -0.5794056654, -0.6815729141, -0.770911932, -0.7147123218, -0.4685336351, 0.1637118906, 0.3231477141, 0.4457789063, 0.7932085395, 1.311527729, 2.082592249, 2.300976753, 2.442697287, 2.583654642, 2.82097578, 3.45383215, 3.632663012]","[-0.3636175394, -0.4411974251, -0.5499314666, -0.5716171265, -0.4876231849, -0.4914411008, -0.5581781268, -0.5697845817, -0.5207626224, -0.4970915914, -0.5969680548, -0.7782423496, -1.013272762, -1.289383769, -1.538616896, -1.697899938, -1.761429906, -1.74417305, -1.829236031, -1.905441403, -1.817171335, -1.385289669, -1.076039076, -0.6939429045, -0.5296201706, -0.5326744914, 0.821613729, 1.007164121, 1.242499948, 1.242805362, 1.010218382, -0.03512475267, -0.2086104751, -0.5068654418, -0.6162103415, -0.3950771093, -0.4221078753, -0.9062185884, -1.06962502, -1.089630842, -1.246928692, -1.136820197, -1.230893493, -1.440267563, -1.667051196, -1.772120118, -1.702175975, -1.311375022, -1.202793717, -1.104444385, -1.006095052, -0.9711230397, -0.9477574229, -0.7599163651, -0.3368921876, 0.2002110779, 0.7686212063, 1.367421865, 1.252731919, 1.061683774, 0.8657487631, 0.5045747161, -0.7585419416, -0.429132849, 0.4804455042, 0.6678284407, 0.04932736978, -1.519527316, -1.964848042, -2.208735943, -2.490345001, -2.732247591, -2.448653221, -1.800067186, -0.8921687007, -0.06811147183, 0.3216205537, 0.5187773108, 0.04856378585, 0.2658790946, 0.8170322776, 0.8988882303, 0.6075055003, 0.04810563847, 0.2206750661, 0.1956295967, -0.393397212, -0.936609149, -0.936609149, -0.0850629881, 0.09361509979, -0.002748893574, -0.06520986557, -0.1340849251, -0.3365867436, -0.609796226, -0.8936958313, -1.047633886, -0.8842274547, -0.8962920308, -1.047481179, -1.253037333, -1.525635958, -1.72508347, -1.345125318, -1.406211853, -1.293507099, -0.04245513305, 1.514029503, 2.960711241, 2.738050699, 1.781435728, 0.2864958048, -0.7406741381, -1.341307402, -0.8481863737, 0.03863722831, 0.3784310222, 0.2328923792, -0.3278819323, -0.7883216143, -0.8869763613, -0.6620252132, -0.4631885588, -0.5186246037, -0.6976081133, -0.652556777, -0.4320344329, -0.2325869352, -0.2658790946, -0.5009095073, -0.7171558142, -0.9964739084, -1.326646566, -1.31045866, 0.2434297949, 1.317941785, 2.252107382, 2.785392761, 2.950937271, 2.554332972, 1.950340033, 0.9228646755, -0.1183551401, 0.4593706727, 1.527468562, 0.3944662213, -1.251815557, -2.38833046, -2.987589121, -3.02317214, -2.820059299, -2.581363916, -2.368019104, -2.125352859, -0.8432994485, -0.7559457421, -0.8278751373, -0.6210972667, -0.2729040384, 0.2249511331, 0.393702656, 0.5955936313, 0.6948592067, 0.5771149397, 0.259465009, -0.2974913716, -0.1582140923, 0.6585127115, 0.9726501703, 0.3878994286, -0.1924225539, -0.06872233748, 0.08765916526, 0.1461495161, 0.4153883755, 0.8487972617, 0.8558222055, 0.8629998565, 0.7365507483, 0.5137376785, -0.255494386, -0.6357579827, -0.8933904171, -0.9798278809, -0.9300423265, -1.072984815, -1.185536742, -0.6371324658, 0.4053090811, 1.57038188, 2.562274218, 2.486221552, 2.0438025, 0.9695958495, 0.1507309973, -0.1218676195, -0.0726929605, 0.1595885456, 0.6272059083, 1.13972187, 1.618640184, 1.258993268, 0.5806274414, -0.02474004216, -0.3231477141, -0.4389066696, -0.7257078886, -0.7527387142, -0.58276546, -0.1646281779, 0.3295617998, 0.8828529716, 0.8474228382, 0.6901249886, 0.4812090993, 0.1620320082, 0.005650503561, 0.7060074806, 1.532050014, 2.2681427, 2.63069129, 2.510656118, 1.934610248, 1.563967705, 1.010523796, 0.2208277881, -0.5021312237, 1.537089705, 1.98867178, 1.491732955, 0.4158465266, -0.248011291, 0.02565634064, -0.04276056588, -0.409432441, -0.7257078886, -0.9097310901, -1.153313637, -1.141401768, -0.6748533845, -0.1160643995, 0.2075414658, 0.8750644922, 1.331533551, 1.73592627, 1.981494188, 2.277611017, 2.781116724, 2.593122959]","[0.3316998184, 0.3544545472, 0.4234823287, 0.5334380865, 0.6478226185, 0.8784242272, 0.9166033268, 0.8535314798, 0.7542658448, 0.6777549982, 0.563065052, 0.5842925906, 0.6160575747, 0.5548183322, 0.3949243724, 0.1857030392, -0.3123048544, -0.5201517344, -0.6614143252, -0.8028296232, -0.9462302923, -1.382846236, -1.738675237, -2.184454203, -2.637105227, -3.003319025, -2.765692472, -2.403907537, -2.221869707, -2.050674677, -1.687820673, -1.105666041, -0.9054549932, -0.7596109509, -0.633467257, -0.5093088746, -0.5458080769, -0.4120286107, -0.2055561543, -0.06673702598, -0.1447750628, -0.2805398703, -0.1910481006, -0.08002334833, 0.12996158, 0.3883575797, 0.6647741199, 1.218981624, 1.44561255, 1.578323126, 1.581377387, 1.488831282, 1.110094905, 0.8324565887, 0.4477642179, -0.07055493444, -0.5800165534, -1.078177214, -1.238834739, -1.393841743, -1.536326051, -1.567632914, -1.210734963, -0.8536841869, -0.283441484, 0.2127338201, 0.6771441102, 1.250288486, 1.36360395, 1.544267297, 1.70859015, 1.819156647, 1.778686881, 1.559080839, 1.200655699, 0.864985168, 0.6389650702, 0.5707008839, 0.8220719099, 0.8495608568, 0.9133962393, 0.9995282292, 1.025184631, 0.8991936445, 0.8713992834, 0.8987354636, 0.9036223888, 0.8715519905, 0.8715519905, 0.8732318878, 0.9511171579, 0.9166033268, 0.7822129726, 0.3649919927, 0.08704829961, -0.188910082, -0.4709770977, -0.7220427394, -0.9586002827, -1.029155254, -1.10261178, -1.186147571, -1.321454287, -1.871080279, -2.326785803, -2.791806936, -3.24598527, -3.612962484, -3.7039814, -2.603660345, -1.972178459, -1.50593555, -1.129337072, -0.85765481, -0.2725986242, -0.4352414906, -0.6545420885, -0.8020660877, -0.747240901, -0.4080579877, -0.4228714705, -0.4456261992, -0.4425718784, -0.4237877727, -0.008399397135, 0.306807071, 0.6209445, 0.9019425511, 1.131475091, 1.428661108, 1.496008992, 1.475545049, 1.370018005, 1.223868489, 1.000139117, 0.2031126916, -0.3552181423, -0.8602510095, -1.179886222, -1.396743417, -1.669494748, -1.772883654, -1.732261062, -1.565800309, -1.107193232, 0.3981314301, 1.034653068, 1.512960553, 1.669189334, 1.89887464, 2.255772591, 2.287842989, 2.161393881, 1.867567778, 1.430188298, 0.6685920358, 0.593913734, 0.5036584139, 0.5028948188, 0.6126978397, 0.64980793, 0.6369797587, 0.6389650702, 0.5853615999, 0.4502076805, 0.3373503387, 0.09392052889, -0.03711006418, 0.06688974798, 0.5018258095, 0.8225300312, 0.8240572214, 0.6684392691, 0.5317581892, 0.4433354437, 0.353843689, -0.06627888232, -0.4321871698, -0.7878634334, -1.051451802, -1.188743711, -1.375057697, -1.548848867, -1.793042183, -2.049758434, -2.264172077, -2.796540976, -3.171459675, -3.455512047, -3.629150391, -3.628081322, -2.418110132, -1.76173532, -1.158505917, -0.7793113589, -0.5467243791, -0.2991712391, 0.1252273768, -0.1036943719, -0.4017966092, -0.5067127347, -0.6647741199, -0.468075484, -0.3080287874, -0.2968805134, -0.1901318133, 0.04703662544, 0.6273586154, 0.9092729092, 1.161713004, 1.366505504, 1.553583026, 1.82312727, 1.880548716, 1.791973233, 1.573436141, 1.334587812, 0.8290968537, 0.3872885704, -0.1583668143, -0.6152940392, -0.8035932183, -0.9117164016, -0.9370672703, -0.9294314981, -0.9497427344, -0.9298896194, -0.8765916228, -0.5054910183, 0.1125519201, 0.8017606139, 1.199892044, 1.378417373, 1.86588788, 2.05724144, 2.09694767, 2.004859686, 1.842369556, 1.510364294, 1.436907768, 1.335351467, 1.200961113, 1.127351761, 1.03816545, 0.925460875, 0.8321511745, 0.7819074988, 0.6914994717, 0.5125159621, 0.5050328374]"
