window_id,activity_id,activity_name,recording_folder,window_start_idx,window_start_time_s,window_end_time_s,acc_x,acc_y,acc_z,gyr_x,gyr_y,gyr_z
0,1,sitting,1_sitting,0,12.29075718,14.78075718,"[-1.329213023, -1.256830096, -1.089930773, -1.095912814, -1.16769743, -1.364507079, -1.752144337, -2.029113531, -2.163111687, -2.06261301, -1.937588096, -1.694118381, -1.6181463, -1.465005636, -1.584646821, -1.771286964, -1.861616015, -2.048256159, -2.019542217, -1.976471543, -1.923829436, -1.746760488, -1.689332843, -1.718046665, -1.622333765, -1.64626193, -1.670190215, -1.536192179, -1.406381488, -1.554736495, -1.823330879, -1.905285001, -1.847857237, -1.857428551, -1.800000787, -1.655833244, -1.679761529, -1.421934843, -1.369292736, -1.455434322, -1.670190215, -1.593619823, -1.837687731, -1.952543259, -1.613360643, -1.679761529, -2.010569334, -2.091326952, -2.239681959, -2.378465652, -2.450250387, -2.344367981, -2.005185366, -2.221137524, -1.962712765, -1.799402595, -1.708475351, -1.737189293, -1.631905079, -1.875972986, -1.971685886, -1.995614052, -2.009970903, -1.956730723, -2.039283037, -2.029113531, -1.914258122, -1.794616938, -1.756331801, -1.708475351, -1.708475351, -1.727617979, -1.765903115, -1.852044702, -2.06261301, -1.919641972, -1.915454507, -1.823929071, -1.895115495, -2.028515339, -2.047657967, -2.024327993, -1.966900229, -1.895115495, -1.852044702, -1.832902193, -1.789831281, -1.780260086, -1.818545222, -1.871187329, -1.871187329, -1.861616015, -1.895115495, -1.856830359, -1.775474429, -1.765903115, -1.789831281, -1.823330879, -1.847259045, -1.875972986, -1.832902193, -1.789831281, -1.813759565, -1.828116536, -1.842473388, -1.871187329, -1.856830359, -1.890329838, -1.8855443, -1.938186288, -2.158325911, -2.019542217, -2.158325911, -2.177468538, -2.081755638, -2.024327993, -2.005185366, -2.053041935, -2.000399828, -2.019542217, -2.043470621, -2.033899307, -2.019542217, -2.0769701, -2.0769701, -2.0769701, -2.096112728, -2.124826431, -2.096112728, -2.115255117, -2.096112728, -2.0769701, -2.048256159, -2.033899307, -2.005185366, -1.971685886, -1.93340075, -1.914258122, -1.919043779, -1.899901152, -1.919043779, -1.947757602, -1.971685886, -1.986042738, -2.000399828, -2.000399828, -1.971685886, -1.986042738, -1.971685886, -2.009970903, -1.986042738, -1.986042738, -2.000399828, -2.000399828, -1.995614052, -1.995614052, -1.990828395, -1.976471543, -1.966900229, -1.986042738, -1.966900229, -1.962114573, -1.942971945, -1.952543259, -1.957328916, -1.966900229, -1.9812572, -2.019542217, -2.06261301, -2.0769701, -2.081755638, -2.0769701, -2.057827473, -2.067398787, -2.057827473, -2.0769701, -2.100898266, -2.081755638, -2.096112728, -2.096112728, -2.086541414, -2.0769701, -2.072184324, -2.053041935, -2.033899307, -2.019542217, -2.024327993, -2.01475668, -2.024327993, -2.043470621, -2.019542217, -2.024327993, -2.000399828, -2.019542217, -2.009970903, -2.005185366, -1.966900229, -1.995614052, -1.976471543, -1.928615093, -1.890329838, -1.880758643, -1.852044702, -1.856830359, -1.847259045, -1.847259045, -1.861616015, -1.880758643, -1.899901152, -1.871187329, -1.8855443, -1.942971945, -1.942971945, -1.947757602, -1.966900229, -1.990828395, -1.990828395, -2.029113531, -2.01475668, -2.043470621, -2.057827473, -2.033899307, -2.033899307, -2.033899307, -2.024327993, -2.024327993, -2.024327993, -2.019542217, -2.01475668, -1.986042738, -2.009970903, -2.000399828, -1.990828395, -2.000399828, -2.009970903, -2.01475668, -2.005185366, -2.024327993, -2.01475668, -2.005185366, -1.990828395, -1.986042738, -1.952543259, -1.976471543, -1.962114573, -1.962114573, -1.990828395, -2.005185366, -2.029113531, -2.038684845]","[0.4402793646, 0.3230310678, 0.104685992, -0.06400800496, -0.3302095234, -0.5198407173, -0.3756731451, -0.2847459018, -0.2703889608, -0.2243271172, -0.06759724021, 0.02871387079, -0.07956135273, -0.1561316848, -0.2231307179, -0.409172684, -0.561715126, -0.8009973764, -0.8871390224, -0.8877372146, -0.8590233326, -0.8063812256, -0.7926225066, -0.717248559, -0.7028916478, -0.7974081635, -0.8638089895, -0.8075776696, -0.8045865893, -0.760917604, -0.7112665176, -0.6903293133, -0.656829834, -0.6233302951, -0.7052844763, -0.7393822074, -0.8356932998, -0.7345965505, -0.7196413875, -0.7914260626, -0.8871390224, -0.9164510965, -0.6101697683, -0.6717849374, -0.7579265833, -1.040279627, -1.26341033, -1.259821177, -1.093519926, -1.212562919, -1.226321578, -1.202991605, -1.29451704, -1.223928809, -0.9194421172, -0.8596215248, -0.9170492887, -0.8410771489, -0.8596215248, -0.9212366939, -0.9631111026, -0.9487541914, -0.9158528447, -0.9367900491, -0.9433703423, -0.8817551732, -0.6873382926, -0.6687939167, -0.7166503668, -0.7453642488, -0.8303094506, -0.8925228715, -0.9080761671, -0.9074779749, -1.036690354, -0.9672985673, -0.7776673436, -0.87517488, -0.9164510965, -0.9798609018, -1.007976532, -0.9457631707, -0.9260223508, -0.9391828775, -0.9589236975, -0.9541380405, -0.9355936646, -0.9302098155, -0.9068797827, -0.993021369, -0.9834501147, -0.9744769931, -0.993021369, -0.9499505758, -0.9068797827, -0.902692318, -0.9212366939, -0.9547362328, -0.9355936646, -0.8967102766, -0.8775677085, -0.8584251404, -0.9349954724, -0.9116654396, -0.9212366939, -0.926620543, -0.9116654396, -0.9308080077, -0.8925228715, -1.002592683, -1.08335042, -0.9876375198, -0.9786644578, -1.068993568, -0.9355936646, -0.9218349457, -0.8979067206, -0.9068797827, -0.9158528447, -0.8919246197, -0.8488538265, -0.7812566161, -0.7770691514, -0.7627122402, -0.7818548083, -0.7537391186, -0.7585247755, -0.7920243144, -0.8356932998, -0.8261220455, -0.8781659007, -0.9068797827, -0.9302098155, -0.9643075466, -0.9732806087, -1.006780148, -1.025922656, -1.025922656, -1.05523479, -1.05523479, -1.083948612, -1.112662554, -1.088734269, -1.040877819, -1.026520967, -0.9589236975, -0.9164510965, -0.8871390224, -0.8679963946, -0.8440681696, -0.8297112584, -0.8297112584, -0.8494520187, -0.8590233326, -0.8829515576, -0.8877372146, -0.8685946465, -0.8446664214, -0.8207381964, -0.8297112584, -0.8488538265, -0.8536394835, -0.9020941257, -0.9212366939, -0.9218349457, -0.9020941257, -0.9403793216, -0.950548768, -0.9547362328, -0.9403793216, -0.9397810698, -0.9014959335, -0.8919246197, -0.8871390224, -0.9014959335, -0.8775677085, -0.8733802438, -0.9116654396, -0.8925228715, -0.9068797827, -0.9020941257, -0.8829515576, -0.9116654396, -0.9020941257, -0.8781659007, -0.8584251404, -0.8871390224, -0.8877372146, -0.8877372146, -0.8823533654, -0.8919246197, -0.9595218897, -0.9403793216, -0.9355936646, -0.9445667267, -0.9355936646, -0.9643075466, -0.9355936646, -0.9451649189, -0.9014959335, -0.8973084688, -0.9068797827, -0.9403793216, -0.9355936646, -0.9314061999, -0.9314061999, -0.902692318, -0.9260223508, -0.9014959335, -0.9164510965, -0.9020941257, -0.8877372146, -0.8823533654, -0.8632107973, -0.8727820516, -0.8919246197, -0.9206385016, -0.9308080077, -0.9164510965, -0.9355936646, -0.9260223508, -0.9068797827, -0.8871390224, -0.8823533654, -0.8919246197, -0.8919246197, -0.8919246197, -0.9164510965, -0.9308080077, -0.8973084688, -0.9254241586, -0.9302098155, -0.9116654396, -0.8925228715, -0.8919246197, -0.8829515576, -0.9068797827, -0.9122636318, -0.9403793216, -0.9355936646, -0.9110672474, -0.8823533654, -0.8536394835, -0.8679963946, -0.8823533654, -0.8781659007, -0.9164510965, -0.9308080077, -0.9403793216, -0.9738788009]","[10.77009487, 11.20020485, 10.93161011, 10.38425159, 10.06181908, 9.757930756, 9.585049629, 9.560523033, 9.546165466, 9.833903313, 10.02233791, 9.994820595, 9.697511673, 9.726225853, 9.720842361, 9.561120987, 9.525827408, 9.447462082, 9.494720459, 9.600004196, 9.586245537, 9.592227936, 9.731011391, 9.851250648, 9.866206169, 9.697511673, 9.586843491, 9.808179855, 10.0767746, 10.00977516, 9.649655342, 9.434301376, 9.391230583, 9.387042999, 9.486943245, 9.655039787, 9.735796928, 9.655637741, 9.565308571, 9.540781975, 9.553344727, 9.658628464, 9.607182503, 9.458230019, 9.540184021, 9.489934921, 9.195617676, 9.34815979, 9.535398483, 9.381061554, 9.29432106, 9.46720314, 9.59282589, 8.983852386, 9.317651749, 9.701699257, 9.71605587, 9.768698692, 9.71186924, 9.604789734, 9.379266739, 9.412766457, 9.51386261, 9.767501831, 9.312267303, 9.360722542, 9.71186924, 9.784252167, 9.817750931, 9.817750931, 9.616155624, 9.558130264, 9.744172096, 9.677172661, 9.641879082, 9.317052841, 8.806185722, 9.155537605, 9.566504478, 9.79083252, 9.699904442, 9.628120422, 9.528220177, 9.403793335, 9.470791817, 9.509077072, 9.567103386, 9.543174744, 9.605388641, 9.590433121, 9.614361763, 9.652647018, 9.585647583, 9.561718941, 9.624530792, 9.677172661, 9.614959717, 9.609575272, 9.591031075, 9.519247055, 9.514460564, 9.510273933, 9.533603668, 9.586245537, 9.614959717, 9.648459435, 9.624530792, 9.600004196, 9.543174744, 9.537193298, 9.468997002, 9.494122505, 9.574879646, 9.425926208, 9.589835167, 9.643074989, 9.652647018, 9.604789734, 9.499505997, 9.489934921, 9.432506561, 9.413962364, 9.471389771, 9.476176262, 9.461818695, 9.538389206, 9.600603104, 9.556933403, 9.633503914, 9.600004196, 9.556335449, 9.551549911, 9.474979401, 9.518050194, 9.479764938, 9.465408325, 9.527621269, 9.508479118, 9.546764374, 9.561120987, 9.598808289, 9.565308571, 9.603593826, 9.574879646, 9.537193298, 9.508479118, 9.533005714, 9.494720459, 9.499505997, 9.480362892, 9.485747337, 9.514460564, 9.523433685, 9.54257679, 9.556933403, 9.576076508, 9.580862045, 9.591031075, 9.586245537, 9.4809618, 9.466604233, 9.490532875, 9.561718941, 9.604789734, 9.623932838, 9.585647583, 9.57129097, 9.623334885, 9.513264656, 9.513264656, 9.479764938, 9.465408325, 9.451051712, 9.475577354, 9.489336014, 9.509077072, 9.537193298, 9.541978836, 9.570692062, 9.541978836, 9.556335449, 9.556933403, 9.5754776, 9.552147865, 9.552147865, 9.489934921, 9.489934921, 9.523433685, 9.552147865, 9.499505997, 9.494720459, 9.570692062, 9.546764374, 9.522835732, 9.494122505, 9.532406807, 9.589835167, 9.57129097, 9.576076508, 9.494720459, 9.571888924, 9.547960281, 9.604789734, 9.600004196, 9.643673897, 9.653244972, 9.643673897, 9.590433121, 9.499505997, 9.543174744, 9.576674461, 9.537791252, 9.509077072, 9.524032593, 9.518648148, 9.480362892, 9.518648148, 9.518050194, 9.547362328, 9.551549911, 9.561120987, 9.518648148, 9.494720459, 9.461220741, 9.480362892, 9.480362892, 9.480362892, 9.580862045, 9.561120987, 9.590433121, 9.498908043, 9.451051712, 9.54257679, 9.533005714, 9.523433685, 9.590433121, 9.585647583, 9.628718376, 9.551549911, 9.537193298, 9.494720459, 9.489934921, 9.500103951, 9.504291534, 9.504291534, 9.537791252, 9.54257679, 9.590433121, 9.585049629, 9.5754776]","[0.1350012124, 0.2148718536, 0.2267837226, 0.1753183305, 0.1266018152, 0.08888089657, 0.07605272532, 0.07330382615, 0.06582073122, 0.05192354694, 0.03268129006, 0.02107485011, -0.008399397135, -0.02092213556, -0.01023199316, 0.007177666761, 0.01756237634, 0.01572977938, 0.01145372353, 0.007941247895, -0.01786780916, -0.04382958263, -0.06505715102, -0.06918048859, -0.05146539584, -0.03207042441, -0.009926560335, 0.003665191587, 0.0251981914, 0.04566217586, 0.02993239649, -0.006414085161, -0.04398229718, -0.07620543987, -0.09361509979, -0.1032362282, -0.09483683109, -0.07773260027, -0.05574145541, -0.04001167417, -0.04398229718, -0.05925392732, -0.07101308554, -0.1030835137, -0.1351539344, -0.157145083, -0.1710422635, -0.1754710376, -0.1542434692, -0.1194241568, -0.07345654815, 0.01679879427, 0.09789115191, 0.03405573592, -0.03344487399, -0.05100724846, -0.05268712714, -0.04566217586, -0.0251981914, -0.01282817032, -0.01206458826, -0.009468411095, -0.005955935922, 0.03833179548, 0.03909537569, 0.006108652335, -0.0160352122, -0.0201585535, -0.01466076635, -0.01130100712, -0.002596177394, 0.003970623948, 0.008552113548, 0.01466076635, 0.01542434748, 0.04550946131, 0.01924225502, -0.02840523422, -0.04031710699, -0.0282525178, -0.02107485011, -0.01420261711, -0.01114829071, -0.01359175146, -0.01359175146, -0.01237002108, -0.005039638374, -0.002748893574, -0.007635815535, -0.01007927675, -0.009926560335, -0.008857546374, -0.006414085161, -0.005192354787, -0.002901609987, 0.0004581489484, 0.006414085161, 0.01114829071, 0.01343903504, 0.008552113548, 0.003665191587, 0.001374446787, 0.002748893574, 0.004123340361, 0.009162978269, 0.01267545391, 0.01023199316, 0.009010262787, 0.01756237634, 0.02244929783, 0.01756237634, -0.0009162978968, -0.005955935922, -0.01542434748, -0.02275473066, -0.01786780916, -0.006872233935, -0.004276056774, -0.0006108652451, 0.001832595794, 0.0006108652451, -0.004276056774, -0.007941247895, -0.01160643995, -0.01145372353, -0.01267545391, -0.009162978269, -0.006719517522, -0.007941247895, -0.006719517522, -0.004123340361, -0.005345070735, -0.005345070735, -0.007788531948, -0.007788531948, -0.007635815535, -0.005192354787, -0.001527163084, -0.00167987938, -0.001832595794, 0.002901609987, 0.01160643995, 0.01527163107, 0.0190895386, 0.01786780916, 0.02046398632, 0.01924225502, 0.01924225502, 0.02275473066, 0.0239764601, 0.01664607786, 0.01298088674, 0.01175915636, 0.01053742506, 0.01069014147, 0.01191187184, 0.01206458826, 0.009621127509, 0.007177666761, -0.0001527163113, -0.006261368748, -0.009926560335, -0.008704829961, -0.005192354787, -0.002901609987, -0.004123340361, -0.002901609987, -0.004123340361, -0.0004581489484, 0.003054326167, 0.005497787148, 0.005650503561, 0.001985311974, -0.00167987938, -0.00167987938, -0.004123340361, -0.006414085161, -0.005192354787, -0.001374446787, 0.001069014193, -0.0001527163113, -0.003817907767, -0.002596177394, -0.002596177394, -0.003970623948, -0.007635815535, -0.008857546374, -0.01023199316, -0.006566801574, -0.005345070735, -0.006414085161, -0.007635815535, -0.003970623948, -0.003970623948, -0.002596177394, -0.00122173049, -0.004734205548, 0.0001527163113, 0.003665191587, -0.001374446787, -0.006261368748, -0.003817907767, -0.007635815535, -0.006414085161, -0.005192354787, -0.00167987938, -0.00167987938, -0.0004581489484, 0.002138028387, -0.00167987938, 0.001985311974, 0.004276056774, 0.005497787148, 0.00320704258, 0.003054326167, 0.004276056774, 0.005650503561, 0.006719517522, 0.009162978269, 0.007941247895, 0.009162978269, 0.01145372353, 0.01038470957, 0.008093964309, 0.001985311974, 0.001985311974, -0.006414085161, -0.006566801574, -0.005345070735, -0.005497787148, -0.001832595794, -0.002901609987, -0.004276056774, -0.003054326167, -0.007788531948, -0.01145372353, -0.01145372353, -0.01038470957, -0.007941247895, -0.005497787148, -0.005497787148, -0.007788531948, -0.009010262787, -0.007788531948, -0.006566801574, -0.009010262787, -0.01023199316, -0.005345070735, -0.004123340361, -0.0004581489484]","[-0.6015495658, -0.4853324294, -0.3417791128, -0.2467895597, -0.1663080603, -0.07849618047, -0.03313944116, -0.009926560335, 0.002290744567, 0.04505131021, 0.1098030284, 0.1672243625, 0.1681406647, 0.1913535446, 0.2148718536, 0.196698606, 0.1527163088, 0.09010262042, 0.03985895589, 0.0201585535, 0.01496619824, 0.03436116874, 0.07101308554, 0.1101084575, 0.1739438772, 0.204639852, 0.2023491114, 0.1866193265, 0.2396118939, 0.2779437006, 0.2556470931, 0.2110539377, 0.1640173197, 0.08139779419, -0.009468411095, -0.03176499158, -0.01695151068, -0.00320704258, 0.008093964309, 0.02428189293, 0.05482515693, 0.1087340117, 0.1624901593, 0.1792889535, 0.1948660165, 0.184634015, 0.1156062484, 0.06276640296, 0.03970624134, -0.002901609987, -0.05757404864, 0.1113301888, 0.2287690341, -0.00122173049, -0.1148426682, -0.08429940045, -0.04138612002, -0.005650503561, 0.02153299935, 0.01069014147, -0.05787948146, -0.07376197726, -0.054061573, 0.1695151031, 0.09468411654, -0.0282525178, -0.02122756653, 0.008093964309, 0.0731511116, 0.1075122803, 0.08933904022, 0.05390885845, 0.07849618047, 0.08827003092, 0.1262963861, 0.1843285859, 0.006261368748, -0.1389718503, -0.1722639948, -0.1501201391, -0.1255328059, -0.08002334833, -0.03222314268, -0.02367102914, -0.02122756653, -0.02122756653, -0.01985312067, -0.01496619824, -0.01374446787, -0.01740965992, -0.02107485011, -0.01130100712, -0.007635815535, -0.01374446787, 0.003512475174, 0.03909537569, 0.05268712714, 0.06979135424, 0.08704829961, 0.08582656831, 0.07590000331, 0.06246097013, 0.04276056588, 0.03176499158, 0.03069597855, 0.03313944116, 0.03802636266, 0.03924809024, 0.0369573459, 0.0430659987, 0.04169155285, 0.04764748737, 0.05726861581, 0.02535090782, 0.02275473066, 0.02901609987, 0.02901609987, 0.02550362423, 0.02061670274, 0.02672535367, 0.02183843218, 0.01450804994, 0.01679879427, 0.0155770639, 0.008246680722, 0.007024950348, 0.02183843218, 0.01695151068, 0.02061670274, 0.01450804994, 0.007177666761, 0.009621127509, 0.008399397135, 0.007177666761, -0.0001527163113, -0.008857546374, -0.007483099122, -0.005039638374, -0.0001527163113, 0.01450804994, 0.03054326214, 0.02565634064, 0.02580905706, 0.01847867295, 0.007330383174, 0.0, 0.00122173049, 0.001374446787, 0.01114829071, 0.01114829071, 0.01725694351, 0.01847867295, 0.01343903504, 0.007330383174, 0.00122173049, -0.006108652335, -0.01466076635, -0.01970040426, -0.01847867295, -0.02474004216, -0.02596177347, -0.02596177347, -0.01863138936, -0.007635815535, 0.003512475174, 0.007177666761, 0.003512475174, 0.01084285788, 0.01084285788, 0.01817324013, 0.01832595654, 0.01588249579, 0.007177666761, 0.003512475174, 0.004734205548, -0.001374446787, -0.006414085161, -0.01618792862, -0.01847867295, -0.0270307865, -0.02718350291, -0.02718350291, -0.02351831272, -0.01863138936, -0.0125227375, -0.01496619824, -0.007635815535, -0.001527163084, 0.004581489135, 0.002138028387, -0.005192354787, -0.007635815535, -0.003970623948, -0.008857546374, -0.02718350291, -0.04199698567, -0.05543602258, -0.04550946131, -0.03329215571, -0.02840523422, -0.01863138936, -0.01985312067, -0.0125227375, -0.01496619824, -0.007635815535, -0.0001527163113, 0.008399397135, 0.003512475174, -0.002596177394, -0.0001527163113, 0.01328631863, 0.01954768784, 0.0171042271, 0.01343903504, 0.01832595654, 0.01588249579, 0.01466076635, 0.0171042271, 0.01832595654, 0.0232128799, 0.03069597855, 0.03558290005, 0.02947424725, 0.01588249579, 0.004734205548, 0.004734205548, -0.003970623948, -0.002748893574, -0.001527163084, 0.01328631863, 0.01695151068, 0.009468411095, 0.02306016348, 0.01695151068, 0.007024950348, 0.0009162978968, 0.003359758761, 0.01191187184, 0.01191187184, 0.01191187184, 0.01328631863, 0.004581489135, -0.0003054326226, 0.002138028387, 0.002290744567, -0.002748893574, -0.002748893574, 0.003512475174, 0.003512475174, 0.008399397135]","[-0.05115996301, -0.06414084882, -0.0731511116, -0.06643159688, -0.06597344577, -0.06902777404, -0.08582656831, -0.08567385375, -0.08078692853, -0.07803803682, -0.07528914511, -0.07742717117, -0.084604837, -0.1015563458, -0.1186605766, -0.1235474944, -0.123852931, -0.1168279797, -0.1159116775, -0.1172861308, -0.1183551401, -0.1255328059, -0.1290452778, -0.1215621829, -0.1114829108, -0.08200865984, -0.06490442902, -0.06872233748, -0.08185594529, -0.08903361112, -0.08185594529, -0.06856962293, -0.0613919571, -0.05207626149, -0.04642575979, -0.04398229718, -0.04031710699, -0.05497787148, -0.05864306539, -0.05604688451, -0.05833763257, -0.07513642311, -0.07727445662, -0.06368270516, -0.05375614017, -0.0232128799, 0.008093964309, 0.01756237634, 0.02229658142, 0.02565634064, 0.03268129006, 0.03711006418, 0.03145955876, 0.03405573592, 0.04077525437, 0.0410806872, 0.03268129006, 0.02672535367, 0.01588249579, 0.0109955743, 0.001985311974, -0.002901609987, -0.007788531948, -0.007788531948, -0.004581489135, 0.005803219974, 0.01695151068, 0.01588249579, 0.01496619824, 0.01023199316, 0.005192354787, -0.002290744567, -0.007024950348, -0.008246680722, -0.01282817032, -0.007788531948, -0.007483099122, -0.008093964309, -0.0009162978968, 0.003970623948, 0.007788531948, 0.01053742506, 0.01191187184, 0.009621127509, 0.009621127509, 0.01084285788, 0.009621127509, 0.005955935922, 0.004734205548, 0.002290744567, 0.002290744567, 0.003512475174, 0.003512475174, 0.002290744567, -0.0001527163113, 0.001374446787, -0.001069014193, -0.003359758761, -0.0009162978968, -0.0009162978968, -0.003359758761, -0.005955935922, -0.004734205548, -0.007330383174, -0.009773843922, -0.01221730467, -0.01206458826, -0.01817324013, -0.02687807009, -0.01939497143, -0.002290744567, 0.007483099122, 0.01847867295, 0.0232128799, 0.01954768784, 0.01832595654, 0.0171042271, 0.01588249579, 0.01343903504, 0.0109955743, 0.01221730467, 0.01221730467, 0.009773843922, 0.007330383174, 0.006108652335, 0.00244346098, -0.00122173049, -0.00122173049, -0.006108652335, -0.008552113548, -0.0109955743, -0.0109955743, -0.0109955743, -0.009773843922, -0.006261368748, -0.005039638374, -0.006261368748, -0.005039638374, -0.006261368748, -0.007330383174, -0.007330383174, -0.003665191587, -0.00244346098, -0.00244346098, -0.003817907767, -0.002596177394, -0.003817907767, -0.007483099122, -0.006261368748, -0.007483099122, -0.008552113548, -0.007330383174, -0.007330383174, -0.007483099122, -0.006261368748, -0.006261368748, -0.003817907767, -0.003970623948, -0.003817907767, -0.001527163084, 0.0009162978968, 0.0009162978968, 0.002290744567, 0.004734205548, 0.003512475174, 0.004886921961, 0.004734205548, 0.003665191587, 0.004886921961, 0.003665191587, 0.004886921961, 0.00244346098, 0.001069014193, -0.001374446787, -0.002596177394, -0.002596177394, -0.003817907767, -0.002596177394, -0.003817907767, -0.003970623948, -0.003970623948, -0.001527163084, -0.001527163084, -0.0001527163113, 0.001069014193, 0.003512475174, 0.005955935922, 0.005955935922, 0.008399397135, 0.007177666761, 0.008399397135, 0.009621127509, 0.009621127509, 0.01084285788, 0.009468411095, 0.01069014147, 0.01053742506, 0.01069014147, 0.008246680722, 0.009468411095, 0.008399397135, 0.008399397135, 0.008399397135, 0.008399397135, 0.008399397135, 0.005955935922, 0.004886921961, 0.003512475174, 0.003512475174, 0.001069014193, -0.00244346098, -0.004886921961, -0.004886921961, -0.007330383174, -0.008552113548, -0.009773843922, -0.01221730467, -0.01221730467, -0.01221730467, -0.01221730467, -0.01221730467, -0.01221730467, -0.01221730467, -0.008552113548, -0.006261368748, -0.006261368748, -0.001374446787, 0.001069014193, 0.003512475174, 0.004886921961, 0.007330383174, 0.0109955743, 0.01221730467, 0.01221730467, 0.01206458826, 0.01084285788, 0.008399397135, 0.008552113548, 0.008552113548, 0.008552113548, 0.006108652335, 0.003512475174, 0.002290744567, -0.0001527163113, -0.003817907767, -0.005039638374, -0.006261368748, -0.009926560335, -0.009926560335, -0.008552113548]"
1,1,sitting,1_sitting,125,13.54075718,16.05640407,"[-2.0769701, -2.096112728, -2.124826431, -2.096112728, -2.115255117, -2.096112728, -2.0769701, -2.048256159, -2.033899307, -2.005185366, -1.971685886, -1.93340075, -1.914258122, -1.919043779, -1.899901152, -1.919043779, -1.947757602, -1.971685886, -1.986042738, -2.000399828, -2.000399828, -1.971685886, -1.986042738, -1.971685886, -2.009970903, -1.986042738, -1.986042738, -2.000399828, -2.000399828, -1.995614052, -1.995614052, -1.990828395, -1.976471543, -1.966900229, -1.986042738, -1.966900229, -1.962114573, -1.942971945, -1.952543259, -1.957328916, -1.966900229, -1.9812572, -2.019542217, -2.06261301, -2.0769701, -2.081755638, -2.0769701, -2.057827473, -2.067398787, -2.057827473, -2.0769701, -2.100898266, -2.081755638, -2.096112728, -2.096112728, -2.086541414, -2.0769701, -2.072184324, -2.053041935, -2.033899307, -2.019542217, -2.024327993, -2.01475668, -2.024327993, -2.043470621, -2.019542217, -2.024327993, -2.000399828, -2.019542217, -2.009970903, -2.005185366, -1.966900229, -1.995614052, -1.976471543, -1.928615093, -1.890329838, -1.880758643, -1.852044702, -1.856830359, -1.847259045, -1.847259045, -1.861616015, -1.880758643, -1.899901152, -1.871187329, -1.8855443, -1.942971945, -1.942971945, -1.947757602, -1.966900229, -1.990828395, -1.990828395, -2.029113531, -2.01475668, -2.043470621, -2.057827473, -2.033899307, -2.033899307, -2.033899307, -2.024327993, -2.024327993, -2.024327993, -2.019542217, -2.01475668, -1.986042738, -2.009970903, -2.000399828, -1.990828395, -2.000399828, -2.009970903, -2.01475668, -2.005185366, -2.024327993, -2.01475668, -2.005185366, -1.990828395, -1.986042738, -1.952543259, -1.976471543, -1.962114573, -1.962114573, -1.990828395, -2.005185366, -2.029113531, -2.038684845, -2.024327993, -2.029113531, -2.019542217, -1.976471543, -1.990828395, -2.005185366, -2.005185366, -2.000399828, -1.995614052, -2.000399828, -2.029113531, -2.019542217, -2.024327993, -2.033899307, -2.053041935, -2.029113531, -2.019542217, -2.038684845, -2.06261301, -2.029113531, -2.024327993, -2.029113531, -2.019542217, -2.024327993, -2.043470621, -2.029113531, -1.990828395, -2.01475668, -2.024327993, -2.01475668, -2.009970903, -2.000399828, -2.009970903, -1.986042738, -1.971685886, -1.971685886, -1.947757602, -1.9812572, -1.971685886, -1.971685886, -1.9812572, -1.976471543, -1.971685886, -1.976471543, -1.990828395, -1.995614052, -2.005185366, -1.966900229, -1.957328916, -1.890329838, -1.9812572, -1.957328916, -2.038684845, -1.995614052, -1.947757602, -1.952543259, -1.966900229, -1.966900229, -1.962114573, -1.957328916, -1.971685886, -1.962114573, -1.986042738, -2.01475668, -2.053041935, -2.081755638, -2.053041935, -2.053041935, -2.053041935, -2.043470621, -2.033899307, -2.009970903, -2.019542217, -2.067398787, -2.019542217, -2.019542217, -2.033899307, -2.043470621, -2.033899307, -2.038684845, -2.01475668, -2.024327993, -2.01475668, -1.9812572, -2.005185366, -2.01475668, -1.962712765, -1.995614052, -1.966302037, -1.990828395, -1.9812572, -1.971685886, -1.962114573, -1.986042738, -2.182254314, -1.866999865, -1.890329838, -2.976671457, -3.086741209, -3.182454109, -3.168097258, -3.077768087, -3.101696253, -3.149552822, -3.116053343, -3.073580742, -3.135195971, -3.25005126, -3.317050457, -3.317050457, -3.312264681, -3.321835995, -3.254837036, -3.216551781, -3.15433836, -3.096910715, -3.034697294, -3.005983353, -2.967698336, -3.010769129, -3.087339401, -3.082553864, -3.158525944, -3.211168051, -3.259024382]","[-0.7537391186, -0.7585247755, -0.7920243144, -0.8356932998, -0.8261220455, -0.8781659007, -0.9068797827, -0.9302098155, -0.9643075466, -0.9732806087, -1.006780148, -1.025922656, -1.025922656, -1.05523479, -1.05523479, -1.083948612, -1.112662554, -1.088734269, -1.040877819, -1.026520967, -0.9589236975, -0.9164510965, -0.8871390224, -0.8679963946, -0.8440681696, -0.8297112584, -0.8297112584, -0.8494520187, -0.8590233326, -0.8829515576, -0.8877372146, -0.8685946465, -0.8446664214, -0.8207381964, -0.8297112584, -0.8488538265, -0.8536394835, -0.9020941257, -0.9212366939, -0.9218349457, -0.9020941257, -0.9403793216, -0.950548768, -0.9547362328, -0.9403793216, -0.9397810698, -0.9014959335, -0.8919246197, -0.8871390224, -0.9014959335, -0.8775677085, -0.8733802438, -0.9116654396, -0.8925228715, -0.9068797827, -0.9020941257, -0.8829515576, -0.9116654396, -0.9020941257, -0.8781659007, -0.8584251404, -0.8871390224, -0.8877372146, -0.8877372146, -0.8823533654, -0.8919246197, -0.9595218897, -0.9403793216, -0.9355936646, -0.9445667267, -0.9355936646, -0.9643075466, -0.9355936646, -0.9451649189, -0.9014959335, -0.8973084688, -0.9068797827, -0.9403793216, -0.9355936646, -0.9314061999, -0.9314061999, -0.902692318, -0.9260223508, -0.9014959335, -0.9164510965, -0.9020941257, -0.8877372146, -0.8823533654, -0.8632107973, -0.8727820516, -0.8919246197, -0.9206385016, -0.9308080077, -0.9164510965, -0.9355936646, -0.9260223508, -0.9068797827, -0.8871390224, -0.8823533654, -0.8919246197, -0.8919246197, -0.8919246197, -0.9164510965, -0.9308080077, -0.8973084688, -0.9254241586, -0.9302098155, -0.9116654396, -0.8925228715, -0.8919246197, -0.8829515576, -0.9068797827, -0.9122636318, -0.9403793216, -0.9355936646, -0.9110672474, -0.8823533654, -0.8536394835, -0.8679963946, -0.8823533654, -0.8781659007, -0.9164510965, -0.9308080077, -0.9403793216, -0.9738788009, -0.9690931439, -0.9595218897, -0.9589236975, -0.9493523836, -0.9589236975, -0.9690931439, -0.9780662656, -0.9684949517, -0.9355936646, -0.9164510965, -0.9068797827, -0.8685946465, -0.8781659007, -0.8877372146, -0.9020941257, -0.8973084688, -0.8494520187, -0.8542376757, -0.8775677085, -0.8488538265, -0.8536394835, -0.8775677085, -0.8871390224, -0.9547362328, -0.9643075466, -0.9451649189, -0.9547362328, -0.9738788009, -0.9780662656, -0.9690931439, -0.9349954724, -0.9547362328, -0.9637092948, -0.9690931439, -0.9690931439, -0.9547362328, -0.9355936646, -0.9308080077, -0.9260223508, -0.9206385016, -0.9206385016, -0.9260223508, -0.9110672474, -0.8919246197, -0.9302098155, -0.9116654396, -0.9164510965, -0.8925228715, -0.8925228715, -0.902692318, -0.9936196208, -0.9547362328, -1.034895778, -0.9828519225, -0.9547362328, -0.9547362328, -0.9547362328, -0.9451649189, -0.9164510965, -0.9068797827, -0.8979067206, -0.8829515576, -0.8781659007, -0.8733802438, -0.8871390224, -0.8919246197, -0.8632107973, -0.8871390224, -0.8775677085, -0.9062815905, -0.9302098155, -0.9355936646, -0.9068797827, -0.9732806087, -0.9684949517, -0.9738788009, -0.9690931439, -0.9972088337, -0.9780662656, -0.9451649189, -0.9445667267, -0.9403793216, -0.9451649189, -0.9068797827, -0.9164510965, -0.9445667267, -0.890130043, -0.9260223508, -0.9134600163, -0.9314061999, -0.9314061999, -0.9218349457, -0.926620543, -0.9403793216, -1.145563841, -0.7178468108, -0.7782655358, -9.357730865, -9.256634712, -9.165108681, -9.155537605, -9.193822861, -9.174081802, -9.239884377, -9.187840462, -9.096315384, -9.062815666, -9.144171715, -9.187242508, -9.202198029, -9.198010445, -9.245866776, -9.221938133, -9.183652878, -9.184251785, -9.260822296, -9.227322578, -9.179466248, -9.198608398, -9.313464165, -9.332606316, -9.275178909, -9.356534958, -9.356534958, -9.279964447]","[9.538389206, 9.600603104, 9.556933403, 9.633503914, 9.600004196, 9.556335449, 9.551549911, 9.474979401, 9.518050194, 9.479764938, 9.465408325, 9.527621269, 9.508479118, 9.546764374, 9.561120987, 9.598808289, 9.565308571, 9.603593826, 9.574879646, 9.537193298, 9.508479118, 9.533005714, 9.494720459, 9.499505997, 9.480362892, 9.485747337, 9.514460564, 9.523433685, 9.54257679, 9.556933403, 9.576076508, 9.580862045, 9.591031075, 9.586245537, 9.4809618, 9.466604233, 9.490532875, 9.561718941, 9.604789734, 9.623932838, 9.585647583, 9.57129097, 9.623334885, 9.513264656, 9.513264656, 9.479764938, 9.465408325, 9.451051712, 9.475577354, 9.489336014, 9.509077072, 9.537193298, 9.541978836, 9.570692062, 9.541978836, 9.556335449, 9.556933403, 9.5754776, 9.552147865, 9.552147865, 9.489934921, 9.489934921, 9.523433685, 9.552147865, 9.499505997, 9.494720459, 9.570692062, 9.546764374, 9.522835732, 9.494122505, 9.532406807, 9.589835167, 9.57129097, 9.576076508, 9.494720459, 9.571888924, 9.547960281, 9.604789734, 9.600004196, 9.643673897, 9.653244972, 9.643673897, 9.590433121, 9.499505997, 9.543174744, 9.576674461, 9.537791252, 9.509077072, 9.524032593, 9.518648148, 9.480362892, 9.518648148, 9.518050194, 9.547362328, 9.551549911, 9.561120987, 9.518648148, 9.494720459, 9.461220741, 9.480362892, 9.480362892, 9.480362892, 9.580862045, 9.561120987, 9.590433121, 9.498908043, 9.451051712, 9.54257679, 9.533005714, 9.523433685, 9.590433121, 9.585647583, 9.628718376, 9.551549911, 9.537193298, 9.494720459, 9.489934921, 9.500103951, 9.504291534, 9.504291534, 9.537791252, 9.54257679, 9.590433121, 9.585049629, 9.5754776, 9.541978836, 9.565906525, 9.484550476, 9.470193863, 9.518050194, 9.527621269, 9.513264656, 9.508479118, 9.528220177, 9.537791252, 9.552147865, 9.518648148, 9.580862045, 9.576076508, 9.527621269, 9.523433685, 9.552147865, 9.547362328, 9.489934921, 9.504291534, 9.518648148, 9.499505997, 9.509077072, 9.532406807, 9.546764374, 9.556335449, 9.565906525, 9.546764374, 9.513264656, 9.518050194, 9.508479118, 9.532406807, 9.513264656, 9.541978836, 9.570692062, 9.546764374, 9.595218658, 9.547362328, 9.537791252, 9.509077072, 9.504291534, 9.533005714, 9.523433685, 9.504291534, 9.509077072, 9.528220177, 9.556933403, 9.547362328, 9.590433121, 9.696315765, 9.642477036, 9.566504478, 9.34038353, 9.441479683, 9.561718941, 9.585647583, 9.580862045, 9.556933403, 9.595218658, 9.590433121, 9.628718376, 9.580862045, 9.537791252, 9.523433685, 9.489934921, 9.489336014, 9.461220741, 9.489934921, 9.466006279, 9.513264656, 9.498908043, 9.561120987, 9.57129097, 9.498908043, 9.503693581, 9.589835167, 9.537193298, 9.513264656, 9.513264656, 9.527621269, 9.489336014, 9.537193298, 9.541978836, 9.54257679, 9.537791252, 9.494122505, 9.183652878, 9.580862045, 9.882357597, 9.647860527, 9.633503914, 9.686145782, 9.667003632, 9.600004196, 9.458827972, 9.180064201, 9.696913719, 0.9900303483, 0.851246655, 0.7657032609, 0.784845829, 0.7944171429, 0.6317051649, 0.5210371017, 0.5599204898, 0.4935196638, 0.5030909777, 0.4157529473, 0.4677968323, 0.5539384484, 0.6017948985, 0.6065805554, 0.5976074338, 0.6693921089, 0.756131947, 0.7794619799, 0.7513462901, 0.7519445419, 0.8093722463, 0.8081758618, 0.7555337548, 0.745962441, 0.7740781307, 0.7405785918, 0.7214360237]","[-0.01267545391, -0.009162978269, -0.006719517522, -0.007941247895, -0.006719517522, -0.004123340361, -0.005345070735, -0.005345070735, -0.007788531948, -0.007788531948, -0.007635815535, -0.005192354787, -0.001527163084, -0.00167987938, -0.001832595794, 0.002901609987, 0.01160643995, 0.01527163107, 0.0190895386, 0.01786780916, 0.02046398632, 0.01924225502, 0.01924225502, 0.02275473066, 0.0239764601, 0.01664607786, 0.01298088674, 0.01175915636, 0.01053742506, 0.01069014147, 0.01191187184, 0.01206458826, 0.009621127509, 0.007177666761, -0.0001527163113, -0.006261368748, -0.009926560335, -0.008704829961, -0.005192354787, -0.002901609987, -0.004123340361, -0.002901609987, -0.004123340361, -0.0004581489484, 0.003054326167, 0.005497787148, 0.005650503561, 0.001985311974, -0.00167987938, -0.00167987938, -0.004123340361, -0.006414085161, -0.005192354787, -0.001374446787, 0.001069014193, -0.0001527163113, -0.003817907767, -0.002596177394, -0.002596177394, -0.003970623948, -0.007635815535, -0.008857546374, -0.01023199316, -0.006566801574, -0.005345070735, -0.006414085161, -0.007635815535, -0.003970623948, -0.003970623948, -0.002596177394, -0.00122173049, -0.004734205548, 0.0001527163113, 0.003665191587, -0.001374446787, -0.006261368748, -0.003817907767, -0.007635815535, -0.006414085161, -0.005192354787, -0.00167987938, -0.00167987938, -0.0004581489484, 0.002138028387, -0.00167987938, 0.001985311974, 0.004276056774, 0.005497787148, 0.00320704258, 0.003054326167, 0.004276056774, 0.005650503561, 0.006719517522, 0.009162978269, 0.007941247895, 0.009162978269, 0.01145372353, 0.01038470957, 0.008093964309, 0.001985311974, 0.001985311974, -0.006414085161, -0.006566801574, -0.005345070735, -0.005497787148, -0.001832595794, -0.002901609987, -0.004276056774, -0.003054326167, -0.007788531948, -0.01145372353, -0.01145372353, -0.01038470957, -0.007941247895, -0.005497787148, -0.005497787148, -0.007788531948, -0.009010262787, -0.007788531948, -0.006566801574, -0.009010262787, -0.01023199316, -0.005345070735, -0.004123340361, -0.0004581489484, 0.0007635815418, 0.0006108652451, 0.003054326167, 0.0007635815418, -0.0003054326226, -0.002748893574, 0.0009162978968, 0.003512475174, 0.004581489135, 0.002138028387, 0.005650503561, 0.001985311974, 0.0007635815418, -0.00167987938, -0.0003054326226, -0.0003054326226, -0.0003054326226, -0.0004581489484, -0.00167987938, -0.006414085161, -0.01023199316, -0.01145372353, -0.01130100712, -0.01007927675, -0.008857546374, -0.008857546374, -0.008857546374, -0.005192354787, -0.001527163084, -0.001527163084, -0.001527163084, -0.003970623948, -0.0003054326226, -0.0003054326226, 0.001985311974, 0.0009162978968, 0.0007635815418, 0.00320704258, 0.0007635815418, -0.0004581489484, -0.0003054326226, 0.0009162978968, 0.003512475174, 0.001069014193, 0.0, -0.00122173049, -0.002596177394, -0.009926560335, -0.01007927675, -0.007941247895, 0.0004581489484, 0.001527163084, -0.003054326167, -0.002748893574, -0.003817907767, 0.003512475174, 0.005803219974, -0.0003054326226, 0.004428773187, 0.005650503561, 0.005650503561, 0.01160643995, 0.01023199316, 0.01023199316, 0.01023199316, 0.006872233935, 0.004428773187, 0.001985311974, -0.002748893574, -0.005192354787, -0.003970623948, -0.004123340361, -0.004276056774, -0.005497787148, -0.005345070735, -0.001832595794, 0.00320704258, -0.0004581489484, 0.0007635815418, -0.001832595794, 0.001985311974, -0.0004581489484, 0.0007635815418, 0.0006108652451, 0.001832595794, 0.001985311974, -0.04612032697, -0.02886338346, -0.01145372353, -0.004276056774, -0.0007635815418, 0.01038470957, 0.03252857551, 0.04505131021, 0.04535674304, 0.01114829071, -0.008704829961, nan, 0.08185594529, 0.08903361112, 0.09132435173, 0.09972374886, 0.09987647086, 0.1001819, 0.09178250283, 0.07391469181, 0.05803219974, 0.03283400834, 0.0109955743, 0.001374446787, 0.005039638374, 0.005039638374, -0.002290744567, -0.01313360315, -0.01191187184, -0.009621127509, -0.0160352122, -0.0282525178, -0.03084869497, -0.01756237634, -0.01389718428, -0.008857546374, -0.0001527163113, 0.003665191587, 0.006108652335]","[0.007024950348, 0.02183843218, 0.01695151068, 0.02061670274, 0.01450804994, 0.007177666761, 0.009621127509, 0.008399397135, 0.007177666761, -0.0001527163113, -0.008857546374, -0.007483099122, -0.005039638374, -0.0001527163113, 0.01450804994, 0.03054326214, 0.02565634064, 0.02580905706, 0.01847867295, 0.007330383174, 0.0, 0.00122173049, 0.001374446787, 0.01114829071, 0.01114829071, 0.01725694351, 0.01847867295, 0.01343903504, 0.007330383174, 0.00122173049, -0.006108652335, -0.01466076635, -0.01970040426, -0.01847867295, -0.02474004216, -0.02596177347, -0.02596177347, -0.01863138936, -0.007635815535, 0.003512475174, 0.007177666761, 0.003512475174, 0.01084285788, 0.01084285788, 0.01817324013, 0.01832595654, 0.01588249579, 0.007177666761, 0.003512475174, 0.004734205548, -0.001374446787, -0.006414085161, -0.01618792862, -0.01847867295, -0.0270307865, -0.02718350291, -0.02718350291, -0.02351831272, -0.01863138936, -0.0125227375, -0.01496619824, -0.007635815535, -0.001527163084, 0.004581489135, 0.002138028387, -0.005192354787, -0.007635815535, -0.003970623948, -0.008857546374, -0.02718350291, -0.04199698567, -0.05543602258, -0.04550946131, -0.03329215571, -0.02840523422, -0.01863138936, -0.01985312067, -0.0125227375, -0.01496619824, -0.007635815535, -0.0001527163113, 0.008399397135, 0.003512475174, -0.002596177394, -0.0001527163113, 0.01328631863, 0.01954768784, 0.0171042271, 0.01343903504, 0.01832595654, 0.01588249579, 0.01466076635, 0.0171042271, 0.01832595654, 0.0232128799, 0.03069597855, 0.03558290005, 0.02947424725, 0.01588249579, 0.004734205548, 0.004734205548, -0.003970623948, -0.002748893574, -0.001527163084, 0.01328631863, 0.01695151068, 0.009468411095, 0.02306016348, 0.01695151068, 0.007024950348, 0.0009162978968, 0.003359758761, 0.01191187184, 0.01191187184, 0.01191187184, 0.01328631863, 0.004581489135, -0.0003054326226, 0.002138028387, 0.002290744567, -0.002748893574, -0.002748893574, 0.003512475174, 0.003512475174, 0.008399397135, 0.01084285788, 0.0171042271, 0.0171042271, 0.001069014193, -0.003817907767, -0.0125227375, -0.009926560335, -0.01481348183, -0.007483099122, -0.001374446787, 0.01221730467, 0.009621127509, 0.005955935922, 0.005955935922, -0.001374446787, -0.007483099122, -0.002596177394, 0.004734205548, -0.001374446787, -0.007635815535, -0.002748893574, -0.003970623948, -0.01007927675, -0.006414085161, -0.008857546374, -0.01740965992, -0.01740965992, -0.01374446787, -0.01481348183, -0.003817907767, -0.008704829961, -0.007635815535, -0.002596177394, -0.002596177394, 0.004734205548, -0.0001527163113, 0.002290744567, 0.007177666761, 0.01084285788, 0.004734205548, -0.003817907767, -0.01374446787, -0.02107485011, -0.02474004216, -0.03573561832, -0.03084869497, -0.02351831272, -0.02718350291, -0.01863138936, 0.01328631863, 0.03298672289, 0.05497787148, 0.01328631863, -0.01374446787, -0.02351831272, -0.01481348183, -0.009926560335, -0.008704829961, 0.005955935922, 0.004734205548, 0.0109955743, 0.0232128799, 0.03313944116, 0.04169155285, 0.03313944116, 0.01221730467, 0.00122173049, 0.003512475174, -0.008704829961, -0.01114829071, -0.01114829071, 0.001069014193, 0.01328631863, 0.01328631863, 0.01084285788, 0.01450804994, 0.01328631863, 0.008399397135, 0.01206458826, 0.01572977938, 0.01084285788, 0.009621127509, 0.01328631863, 0.01572977938, 0.01695151068, 0.009621127509, 0.03359758854, 0.01664607786, 0.007024950348, 0.01450804994, 0.02916881628, 0.02199114859, 0.0160352122, -0.004581489135, -0.02428189293, -0.04657847434, -0.01985312067, nan, 0.1113301888, 0.1272126883, 0.1408044398, 0.1568396538, 0.1481348276, 0.1235474944, 0.09773843735, 0.05955936015, 0.0410806872, -0.0009162978968, -0.0282525178, -0.04550946131, -0.04428773001, -0.04673119262, -0.05299255997, -0.06536258012, -0.06658431143, -0.04932736978, -0.03466660157, -0.02748893574, -0.01893682219, -0.005192354787, -0.003970623948, -0.0125227375, -0.0160352122, -0.0282525178, -0.03680463135]","[0.00244346098, -0.00122173049, -0.00122173049, -0.006108652335, -0.008552113548, -0.0109955743, -0.0109955743, -0.0109955743, -0.009773843922, -0.006261368748, -0.005039638374, -0.006261368748, -0.005039638374, -0.006261368748, -0.007330383174, -0.007330383174, -0.003665191587, -0.00244346098, -0.00244346098, -0.003817907767, -0.002596177394, -0.003817907767, -0.007483099122, -0.006261368748, -0.007483099122, -0.008552113548, -0.007330383174, -0.007330383174, -0.007483099122, -0.006261368748, -0.006261368748, -0.003817907767, -0.003970623948, -0.003817907767, -0.001527163084, 0.0009162978968, 0.0009162978968, 0.002290744567, 0.004734205548, 0.003512475174, 0.004886921961, 0.004734205548, 0.003665191587, 0.004886921961, 0.003665191587, 0.004886921961, 0.00244346098, 0.001069014193, -0.001374446787, -0.002596177394, -0.002596177394, -0.003817907767, -0.002596177394, -0.003817907767, -0.003970623948, -0.003970623948, -0.001527163084, -0.001527163084, -0.0001527163113, 0.001069014193, 0.003512475174, 0.005955935922, 0.005955935922, 0.008399397135, 0.007177666761, 0.008399397135, 0.009621127509, 0.009621127509, 0.01084285788, 0.009468411095, 0.01069014147, 0.01053742506, 0.01069014147, 0.008246680722, 0.009468411095, 0.008399397135, 0.008399397135, 0.008399397135, 0.008399397135, 0.008399397135, 0.005955935922, 0.004886921961, 0.003512475174, 0.003512475174, 0.001069014193, -0.00244346098, -0.004886921961, -0.004886921961, -0.007330383174, -0.008552113548, -0.009773843922, -0.01221730467, -0.01221730467, -0.01221730467, -0.01221730467, -0.01221730467, -0.01221730467, -0.01221730467, -0.008552113548, -0.006261368748, -0.006261368748, -0.001374446787, 0.001069014193, 0.003512475174, 0.004886921961, 0.007330383174, 0.0109955743, 0.01221730467, 0.01221730467, 0.01206458826, 0.01084285788, 0.008399397135, 0.008552113548, 0.008552113548, 0.008552113548, 0.006108652335, 0.003512475174, 0.002290744567, -0.0001527163113, -0.003817907767, -0.005039638374, -0.006261368748, -0.009926560335, -0.009926560335, -0.008552113548, -0.007330383174, -0.006108652335, -0.004886921961, -0.002596177394, -0.003817907767, -0.001374446787, -0.001374446787, -0.001374446787, -0.0001527163113, -0.0001527163113, 0.00122173049, 0.00122173049, 0.001069014193, 0.001069014193, -0.0001527163113, -0.001374446787, -0.005039638374, -0.003817907767, -0.003817907767, -0.005039638374, -0.006261368748, -0.006261368748, -0.008704829961, -0.007483099122, -0.005039638374, -0.003817907767, -0.002596177394, -0.002596177394, -0.0001527163113, -0.0001527163113, 0.002290744567, 0.002290744567, 0.003512475174, 0.004734205548, 0.005955935922, 0.007177666761, 0.005955935922, 0.005955935922, 0.006108652335, 0.005955935922, 0.005955935922, 0.004734205548, 0.004581489135, 0.002138028387, 0.002138028387, 0.002138028387, 0.0009162978968, -0.001527163084, -0.001374446787, -0.003665191587, -0.00122173049, 0.001374446787, 0.004886921961, 0.003512475174, 0.003359758761, 0.004734205548, 0.003512475174, 0.003512475174, 0.003512475174, 0.002290744567, 0.00122173049, -0.0, -0.00244346098, -0.002290744567, -0.004886921961, -0.004886921961, -0.007483099122, -0.007483099122, -0.009926560335, -0.008704829961, -0.007483099122, -0.007483099122, -0.007330383174, -0.003665191587, -0.00244346098, -0.00244346098, -0.00122173049, -0.00122173049, -0.0, 0.00244346098, 0.003665191587, 0.004886921961, 0.006108652335, 0.006108652335, 0.007330383174, 0.009621127509, 0.007483099122, 0.009773843922, 0.008552113548, 0.009773843922, 0.0109955743, 0.008552113548, 0.008399397135, 0.008399397135, 0.009468411095, 0.0007635815418, 0.001069014193, nan, -0.03634648025, -0.0313068442, -0.0251981914, -0.0262672063, -0.02764165215, -0.01298088674, -0.01679879427, -0.01695151068, -0.0171042271, -0.01725694351, -0.01130100712, -0.002748893574, 0.003359758761, 0.009315694682, 0.01298088674, 0.01664607786, 0.01786780916, 0.01679879427, 0.01191187184, 0.008399397135, 0.001069014193, -0.005039638374, -0.009926560335, -0.01237002108, -0.01237002108, -0.007635815535, -0.001527163084]"
2,1,sitting,1_sitting,250,14.79075718,17.30640407,"[-2.024327993, -2.029113531, -2.019542217, -1.976471543, -1.990828395, -2.005185366, -2.005185366, -2.000399828, -1.995614052, -2.000399828, -2.029113531, -2.019542217, -2.024327993, -2.033899307, -2.053041935, -2.029113531, -2.019542217, -2.038684845, -2.06261301, -2.029113531, -2.024327993, -2.029113531, -2.019542217, -2.024327993, -2.043470621, -2.029113531, -1.990828395, -2.01475668, -2.024327993, -2.01475668, -2.009970903, -2.000399828, -2.009970903, -1.986042738, -1.971685886, -1.971685886, -1.947757602, -1.9812572, -1.971685886, -1.971685886, -1.9812572, -1.976471543, -1.971685886, -1.976471543, -1.990828395, -1.995614052, -2.005185366, -1.966900229, -1.957328916, -1.890329838, -1.9812572, -1.957328916, -2.038684845, -1.995614052, -1.947757602, -1.952543259, -1.966900229, -1.966900229, -1.962114573, -1.957328916, -1.971685886, -1.962114573, -1.986042738, -2.01475668, -2.053041935, -2.081755638, -2.053041935, -2.053041935, -2.053041935, -2.043470621, -2.033899307, -2.009970903, -2.019542217, -2.067398787, -2.019542217, -2.019542217, -2.033899307, -2.043470621, -2.033899307, -2.038684845, -2.01475668, -2.024327993, -2.01475668, -1.9812572, -2.005185366, -2.01475668, -1.962712765, -1.995614052, -1.966302037, -1.990828395, -1.9812572, -1.971685886, -1.962114573, -1.986042738, -2.182254314, -1.866999865, -1.890329838, -2.976671457, -3.086741209, -3.182454109, -3.168097258, -3.077768087, -3.101696253, -3.149552822, -3.116053343, -3.073580742, -3.135195971, -3.25005126, -3.317050457, -3.317050457, -3.312264681, -3.321835995, -3.254837036, -3.216551781, -3.15433836, -3.096910715, -3.034697294, -3.005983353, -2.967698336, -3.010769129, -3.087339401, -3.082553864, -3.158525944, -3.211168051, -3.259024382, -3.249453068, -3.230310678, -3.187838078, -3.125624657, -3.034697294, -3.015554667, -2.96291256, -2.92941308, -2.94377017, -2.991626501, -3.044268608, -3.144767046, -3.16869545, -3.15433836, -3.158525944, -3.115455151, -3.048455954, -3.024527788, -2.981456995, -2.986242771, -3.043670416, -3.03888464, -3.105883837, -3.196810961, -3.287738323, -3.292523861, -3.316452265, -3.311666489, -3.24466753, -3.206382275, -3.182454109, -3.201596737, -3.235096216, -3.306880951, -3.321835995, -3.384049416, -3.369692564, -3.388236761, -3.383451223, -3.359523058, -3.302693367, -3.278765202, -3.221337557, -3.226123095, -3.159124136, -3.192623615, -3.24466753, -3.249453068, -3.306880951, -3.311666489, -3.302693367, -3.226123095, -3.125624657, -3.07298255, -3.096910715, -3.125624657, -3.149552822, -3.131008387, -3.073580742, -3.016152859, -3.025724173, -3.011367321, -2.973082066, -2.915654421, -2.910270452, -2.876770973, -2.863012314, -2.867797852, -2.848655462, -2.925225735, -3.007179976, -3.025724173, -3.029911757, -3.05862546, -3.211168051, -3.287738323, -3.306282759, -3.316452265, -3.288336515, -3.283550978, -3.18843627, -3.092125177, -3.081955671, -3.172284603, -3.248854876, -3.263810158, -3.216551781, -3.101696253, -3.029911757, -3.043670416, -3.124428272, -3.081357241, -2.947359324, -2.740978241, -2.684148788, -2.650649309, -2.646461725, -2.325823545, -2.316850424, -2.474178553, -2.656033039, -2.813361168, -2.936591625, -3.007179976, -3.049652576, -2.863012314, -2.547757864, -2.638087034, -2.64825654, -2.365903378, -2.389831543, -3.096910715, -3.549752474, -3.530011654, -3.449253798, -3.086143017, -2.890529871, -2.565704107, -2.360519648, -2.398804665, -2.308475733, -2.383849621, -2.478366137, -2.654238462, -2.849851847]","[-0.9690931439, -0.9595218897, -0.9589236975, -0.9493523836, -0.9589236975, -0.9690931439, -0.9780662656, -0.9684949517, -0.9355936646, -0.9164510965, -0.9068797827, -0.8685946465, -0.8781659007, -0.8877372146, -0.9020941257, -0.8973084688, -0.8494520187, -0.8542376757, -0.8775677085, -0.8488538265, -0.8536394835, -0.8775677085, -0.8871390224, -0.9547362328, -0.9643075466, -0.9451649189, -0.9547362328, -0.9738788009, -0.9780662656, -0.9690931439, -0.9349954724, -0.9547362328, -0.9637092948, -0.9690931439, -0.9690931439, -0.9547362328, -0.9355936646, -0.9308080077, -0.9260223508, -0.9206385016, -0.9206385016, -0.9260223508, -0.9110672474, -0.8919246197, -0.9302098155, -0.9116654396, -0.9164510965, -0.8925228715, -0.8925228715, -0.902692318, -0.9936196208, -0.9547362328, -1.034895778, -0.9828519225, -0.9547362328, -0.9547362328, -0.9547362328, -0.9451649189, -0.9164510965, -0.9068797827, -0.8979067206, -0.8829515576, -0.8781659007, -0.8733802438, -0.8871390224, -0.8919246197, -0.8632107973, -0.8871390224, -0.8775677085, -0.9062815905, -0.9302098155, -0.9355936646, -0.9068797827, -0.9732806087, -0.9684949517, -0.9738788009, -0.9690931439, -0.9972088337, -0.9780662656, -0.9451649189, -0.9445667267, -0.9403793216, -0.9451649189, -0.9068797827, -0.9164510965, -0.9445667267, -0.890130043, -0.9260223508, -0.9134600163, -0.9314061999, -0.9314061999, -0.9218349457, -0.926620543, -0.9403793216, -1.145563841, -0.7178468108, -0.7782655358, -9.357730865, -9.256634712, -9.165108681, -9.155537605, -9.193822861, -9.174081802, -9.239884377, -9.187840462, -9.096315384, -9.062815666, -9.144171715, -9.187242508, -9.202198029, -9.198010445, -9.245866776, -9.221938133, -9.183652878, -9.184251785, -9.260822296, -9.227322578, -9.179466248, -9.198608398, -9.313464165, -9.332606316, -9.275178909, -9.356534958, -9.356534958, -9.279964447, -9.251849174, -9.218349457, -9.208179474, -9.20758152, -9.202795982, -9.187840462, -9.17886734, -9.183652878, -9.193224907, -9.235696793, -9.269794464, -9.317052841, -9.331410408, -9.312865257, -9.361320496, -9.376275063, -9.337990761, -9.290133476, -9.300303459, -9.257232666, -9.214161873, -9.204590797, -9.166305542, -9.165707588, -9.160921097, -9.180064201, -9.247062683, -9.26142025, -9.203393936, -9.20399189, -9.218349457, -9.199206352, -9.194420815, -9.241679192, -9.212367058, -9.174081802, -9.097511292, -9.107681274, -9.122037888, -9.126823425, -9.136395454, -9.288937569, -9.307481766, -9.307481766, -9.327222824, -9.284749985, -9.237491608, -9.223732948, -9.208778381, -9.232108116, -9.312865257, -9.355937004, -9.375079155, -9.422935486, -9.42712307, -9.340981483, -9.239884377, -9.229117393, -9.238688469, -9.27278614, -9.31525898, -9.353543282, -9.343972206, -9.445667267, -9.345169067, -9.288339615, -9.292527199, -9.348757744, -9.367302895, -9.366703987, -9.346963882, -9.248259544, -9.087342262, -8.997013092, -8.964710236, -9.056833267, -9.205786705, -9.19980526, -9.183652878, -9.139386177, -9.000602722, -9.00179863, -9.061020851, -8.996415138, -8.995218277, -9.032905579, -9.159725189, -9.255437851, -9.293723106, -9.238089561, -9.010173798, -8.892327309, -8.68774128, -8.736195564, -8.544769287, -8.754141808, -8.848658562, -8.880961418, -8.899505615, -9.100502968, -9.330811501, -9.404391289, -9.131608963, -8.668000221, -8.268398285, -7.8341012, -7.63190794, -7.670791149, -7.937591076, -8.129016876, -8.501698494, -9.144769669, -9.617352486, -9.495318413, -9.227322578, -8.890532494, -9.080761909, -8.983254433, -8.81456089, -8.64167881, -8.268398285, -8.127222061, -8.083553314, -7.865208149, -7.52722168]","[9.541978836, 9.565906525, 9.484550476, 9.470193863, 9.518050194, 9.527621269, 9.513264656, 9.508479118, 9.528220177, 9.537791252, 9.552147865, 9.518648148, 9.580862045, 9.576076508, 9.527621269, 9.523433685, 9.552147865, 9.547362328, 9.489934921, 9.504291534, 9.518648148, 9.499505997, 9.509077072, 9.532406807, 9.546764374, 9.556335449, 9.565906525, 9.546764374, 9.513264656, 9.518050194, 9.508479118, 9.532406807, 9.513264656, 9.541978836, 9.570692062, 9.546764374, 9.595218658, 9.547362328, 9.537791252, 9.509077072, 9.504291534, 9.533005714, 9.523433685, 9.504291534, 9.509077072, 9.528220177, 9.556933403, 9.547362328, 9.590433121, 9.696315765, 9.642477036, 9.566504478, 9.34038353, 9.441479683, 9.561718941, 9.585647583, 9.580862045, 9.556933403, 9.595218658, 9.590433121, 9.628718376, 9.580862045, 9.537791252, 9.523433685, 9.489934921, 9.489336014, 9.461220741, 9.489934921, 9.466006279, 9.513264656, 9.498908043, 9.561120987, 9.57129097, 9.498908043, 9.503693581, 9.589835167, 9.537193298, 9.513264656, 9.513264656, 9.527621269, 9.489336014, 9.537193298, 9.541978836, 9.54257679, 9.537791252, 9.494122505, 9.183652878, 9.580862045, 9.882357597, 9.647860527, 9.633503914, 9.686145782, 9.667003632, 9.600004196, 9.458827972, 9.180064201, 9.696913719, 0.9900303483, 0.851246655, 0.7657032609, 0.784845829, 0.7944171429, 0.6317051649, 0.5210371017, 0.5599204898, 0.4935196638, 0.5030909777, 0.4157529473, 0.4677968323, 0.5539384484, 0.6017948985, 0.6065805554, 0.5976074338, 0.6693921089, 0.756131947, 0.7794619799, 0.7513462901, 0.7519445419, 0.8093722463, 0.8081758618, 0.7555337548, 0.745962441, 0.7740781307, 0.7405785918, 0.7214360237, 0.8075776696, 0.8416753411, 0.7507480979, 0.679561615, 0.6747759581, 0.6221339107, 0.6993024349, 0.7088736892, 0.6993024349, 0.626919508, 0.6311069727, 0.5826523304, 0.5826523304, 0.6687939167, 0.7405785918, 0.8219345808, 0.8991031051, 0.8997012973, 0.94277215, 1.009771109, 0.9667003751, 0.9475577474, 0.9236295223, 0.8422735929, 0.8464609981, 0.8081758618, 0.8267202377, 0.7836494446, 0.7555337548, 0.798604548, 0.87517488, 0.87517488, 0.8273184299, 0.7310073376, 0.6783652306, 0.6496513486, 0.6502495408, 0.6885347366, 0.769890666, 0.745962441, 0.7124629617, 0.6209374666, 0.5347958803, 0.5108676553, 0.6879364848, 0.7262216806, 0.851246655, 0.9613165259, 0.8368897438, 0.7549355626, 0.6059823632, 0.6203392744, 0.6496513486, 0.6783652306, 0.5724828243, 0.5300102234, 0.4588237405, 0.2961117923, 0.3152543902, 0.4253242314, 0.2817548811, 0.3433700502, 0.3391826153, 0.4725824594, 0.5258227587, 0.5790630579, 0.5024927258, 0.3631108403, 0.2673979402, 0.162113741, 0.04187439755, 0.2626122832, 0.613160789, 0.709471941, 0.8482556343, 1.019342422, 1.085743308, 0.9182456732, 0.6119644046, 0.4636093974, 0.4552344978, 0.709471941, 0.9870393276, 1.283749342, 1.164108157, 0.9816554785, 0.6891329288, 0.6789634228, 0.7028916478, 0.9954141974, 1.250249863, 1.524227977, 1.727019787, 1.832902193, 1.877767563, 1.674975872, 1.444666624, 1.3310076, 1.244866014, 1.189831018, 1.278963685, 1.584048629, 2.298904419, 3.105883837, 3.486940861, 3.68674159, 3.626920938, 3.62153697, 3.457030535, 3.543172121, 3.401995659, 3.595814228, 4.089334011, 4.444668293, 4.532604218, 4.244269371, 4.06660223, 3.838685751, 3.658625841, 3.568296671, 3.566502094, 4.021736622, 4.658825874, 5.679364681, 5.862415314]","[0.0007635815418, 0.0006108652451, 0.003054326167, 0.0007635815418, -0.0003054326226, -0.002748893574, 0.0009162978968, 0.003512475174, 0.004581489135, 0.002138028387, 0.005650503561, 0.001985311974, 0.0007635815418, -0.00167987938, -0.0003054326226, -0.0003054326226, -0.0003054326226, -0.0004581489484, -0.00167987938, -0.006414085161, -0.01023199316, -0.01145372353, -0.01130100712, -0.01007927675, -0.008857546374, -0.008857546374, -0.008857546374, -0.005192354787, -0.001527163084, -0.001527163084, -0.001527163084, -0.003970623948, -0.0003054326226, -0.0003054326226, 0.001985311974, 0.0009162978968, 0.0007635815418, 0.00320704258, 0.0007635815418, -0.0004581489484, -0.0003054326226, 0.0009162978968, 0.003512475174, 0.001069014193, 0.0, -0.00122173049, -0.002596177394, -0.009926560335, -0.01007927675, -0.007941247895, 0.0004581489484, 0.001527163084, -0.003054326167, -0.002748893574, -0.003817907767, 0.003512475174, 0.005803219974, -0.0003054326226, 0.004428773187, 0.005650503561, 0.005650503561, 0.01160643995, 0.01023199316, 0.01023199316, 0.01023199316, 0.006872233935, 0.004428773187, 0.001985311974, -0.002748893574, -0.005192354787, -0.003970623948, -0.004123340361, -0.004276056774, -0.005497787148, -0.005345070735, -0.001832595794, 0.00320704258, -0.0004581489484, 0.0007635815418, -0.001832595794, 0.001985311974, -0.0004581489484, 0.0007635815418, 0.0006108652451, 0.001832595794, 0.001985311974, -0.04612032697, -0.02886338346, -0.01145372353, -0.004276056774, -0.0007635815418, 0.01038470957, 0.03252857551, 0.04505131021, 0.04535674304, 0.01114829071, -0.008704829961, nan, 0.08185594529, 0.08903361112, 0.09132435173, 0.09972374886, 0.09987647086, 0.1001819, 0.09178250283, 0.07391469181, 0.05803219974, 0.03283400834, 0.0109955743, 0.001374446787, 0.005039638374, 0.005039638374, -0.002290744567, -0.01313360315, -0.01191187184, -0.009621127509, -0.0160352122, -0.0282525178, -0.03084869497, -0.01756237634, -0.01389718428, -0.008857546374, -0.0001527163113, 0.003665191587, 0.006108652335, 0.01359175146, 0.02199114859, 0.02672535367, 0.02916881628, 0.02290744707, 0.009468411095, 0.0007635815418, -0.003054326167, 0.001832595794, 0.01298088674, 0.01924225502, 0.01572977938, 0.008399397135, -0.007483099122, -0.003970623948, 0.008246680722, 0.01282817032, 0.01649336144, 0.02138028294, 0.03100141138, 0.04566217586, 0.05299255997, 0.04948008433, 0.03726277873, 0.02641992271, 0.01038470957, 0.005497787148, -0.0006108652451, -0.009010262787, -0.003970623948, 0.008246680722, 0.02412917651, 0.03756821156, 0.03283400834, 0.01817324013, 0.0, -0.0171042271, -0.03298672289, -0.03313944116, -0.03069597855, -0.02229658142, -0.0262672063, -0.0423024185, -0.06185010448, -0.06933320314, -0.06414084882, -0.03833179548, -0.009010262787, 0.01282817032, 0.01496619824, 0.007483099122, 0.002596177394, 0.003970623948, 0.01634064503, 0.03985895589, 0.06582073122, 0.08674286306, 0.1004873365, 0.1007927656, 0.1143845171, 0.1291979998, 0.118049711, 0.09498954564, 0.08399397135, 0.08918632567, 0.1088867337, 0.1371392459, 0.1592831165, 0.1554652005, 0.145691365, 0.1423316002, 0.1511891484, 0.1742493063, 0.2183843255, 0.287106663, 0.3975205719, 0.4954117239, 0.5542075038, 0.5593998432, 0.5270239711, 0.4624249935, 0.4086688459, 0.3988949955, 0.4205807149, 0.4570799172, 0.487775892, 0.4896084964, 0.4743368626, 0.4398229718, 0.4111123085, 0.389426589, 0.38576141, 0.4068362415, 0.4433354437, 0.4906775057, 0.5422956347, 0.5968153477, 0.6615670323, 0.7163922191, 0.7519751191, 0.7652614117, 0.7577783465, 0.7683157325, 0.8205447197, 0.8903360963, 0.9259189963, 0.967610538, 1.026558995, 1.091005325, 1.120632291, 1.09848845, 1.070541382, 1.072068453, 1.083827615, 1.082758665, 1.060614824, 1.020450354, 0.9784533978, 0.9572258592, 0.9500481486, 0.9502009153, 0.9708175659, 1.019228697, 1.124602914, 1.225395679]","[0.01084285788, 0.0171042271, 0.0171042271, 0.001069014193, -0.003817907767, -0.0125227375, -0.009926560335, -0.01481348183, -0.007483099122, -0.001374446787, 0.01221730467, 0.009621127509, 0.005955935922, 0.005955935922, -0.001374446787, -0.007483099122, -0.002596177394, 0.004734205548, -0.001374446787, -0.007635815535, -0.002748893574, -0.003970623948, -0.01007927675, -0.006414085161, -0.008857546374, -0.01740965992, -0.01740965992, -0.01374446787, -0.01481348183, -0.003817907767, -0.008704829961, -0.007635815535, -0.002596177394, -0.002596177394, 0.004734205548, -0.0001527163113, 0.002290744567, 0.007177666761, 0.01084285788, 0.004734205548, -0.003817907767, -0.01374446787, -0.02107485011, -0.02474004216, -0.03573561832, -0.03084869497, -0.02351831272, -0.02718350291, -0.01863138936, 0.01328631863, 0.03298672289, 0.05497787148, 0.01328631863, -0.01374446787, -0.02351831272, -0.01481348183, -0.009926560335, -0.008704829961, 0.005955935922, 0.004734205548, 0.0109955743, 0.0232128799, 0.03313944116, 0.04169155285, 0.03313944116, 0.01221730467, 0.00122173049, 0.003512475174, -0.008704829961, -0.01114829071, -0.01114829071, 0.001069014193, 0.01328631863, 0.01328631863, 0.01084285788, 0.01450804994, 0.01328631863, 0.008399397135, 0.01206458826, 0.01572977938, 0.01084285788, 0.009621127509, 0.01328631863, 0.01572977938, 0.01695151068, 0.009621127509, 0.03359758854, 0.01664607786, 0.007024950348, 0.01450804994, 0.02916881628, 0.02199114859, 0.0160352122, -0.004581489135, -0.02428189293, -0.04657847434, -0.01985312067, nan, 0.1113301888, 0.1272126883, 0.1408044398, 0.1568396538, 0.1481348276, 0.1235474944, 0.09773843735, 0.05955936015, 0.0410806872, -0.0009162978968, -0.0282525178, -0.04550946131, -0.04428773001, -0.04673119262, -0.05299255997, -0.06536258012, -0.06658431143, -0.04932736978, -0.03466660157, -0.02748893574, -0.01893682219, -0.005192354787, -0.003970623948, -0.0125227375, -0.0160352122, -0.0282525178, -0.03680463135, -0.04535674304, -0.02565634064, -0.01588249579, -0.01206458826, -0.00244346098, -0.0001527163113, 0.004734205548, 0.01450804994, 0.01954768784, 0.01481348183, 0.005039638374, -0.01832595654, -0.02336559631, -0.02229658142, -0.01481348183, 0.00122173049, 0.01970040426, 0.0270307865, 0.03573561832, 0.05421429127, 0.05818491429, 0.0532979928, 0.04352414981, 0.03115412779, 0.02107485011, 0.02092213556, 0.02687807009, 0.02550362423, 0.007024950348, -0.003970623948, -0.0001527163113, 0.008704829961, 0.01007927675, -0.001069014193, -0.01359175146, -0.03222314268, -0.03985895589, -0.04489859566, -0.03894266114, -0.02916881628, -0.01069014147, 0.008857546374, 0.01970040426, 0.009773843922, 0.0171042271, 0.0, -0.009468411095, 0.00320704258, 0.02306016348, 0.05375614017, 0.06582073122, 0.06582073122, 0.05726861581, 0.04398229718, 0.01985312067, 0.009010262787, -0.0004581489484, -0.02367102914, -0.04581489414, -0.04688390717, -0.05894849449, -0.05787948146, -0.0716239512, -0.08139779419, -0.108275868, -0.1166752651, -0.1127046347, -0.1235474944, -0.1101084575, -0.1090394482, -0.1397354305, -0.1545489132, -0.1359175146, -0.1269072592, -0.1284344196, -0.1247692257, -0.09300423414, -0.07880161703, -0.1058324054, -0.1699732542, -0.2209804952, -0.2461786866, -0.2388483137, -0.2055561543, -0.1818851233, -0.169209674, -0.2293798923, -0.2932153046, -0.3978259861, -0.4679227769, -0.5035057068, -0.5096143484, -0.5215262175, -0.4928155243, -0.4566217661, -0.4584543705, -0.4983133376, -0.5807801485, -0.6621779203, -0.7757988572, -0.8602510095, -0.9718865752, -1.040456176, -0.9847147465, -0.8562803864, -0.7368562222, -0.6185010672, -0.5112941861, -0.4529565871, -0.3543018401, -0.2390010208, -0.161115706, -0.06215553731, 0.09575312585, 0.1983784884, 0.2113593817, 0.1765400618, 0.09376781434, 0.01145372353, -0.1272126883, -0.2533563673, -0.3388774991, -0.3947716653, -0.3605632186, -0.2700024247]","[-0.007330383174, -0.006108652335, -0.004886921961, -0.002596177394, -0.003817907767, -0.001374446787, -0.001374446787, -0.001374446787, -0.0001527163113, -0.0001527163113, 0.00122173049, 0.00122173049, 0.001069014193, 0.001069014193, -0.0001527163113, -0.001374446787, -0.005039638374, -0.003817907767, -0.003817907767, -0.005039638374, -0.006261368748, -0.006261368748, -0.008704829961, -0.007483099122, -0.005039638374, -0.003817907767, -0.002596177394, -0.002596177394, -0.0001527163113, -0.0001527163113, 0.002290744567, 0.002290744567, 0.003512475174, 0.004734205548, 0.005955935922, 0.007177666761, 0.005955935922, 0.005955935922, 0.006108652335, 0.005955935922, 0.005955935922, 0.004734205548, 0.004581489135, 0.002138028387, 0.002138028387, 0.002138028387, 0.0009162978968, -0.001527163084, -0.001374446787, -0.003665191587, -0.00122173049, 0.001374446787, 0.004886921961, 0.003512475174, 0.003359758761, 0.004734205548, 0.003512475174, 0.003512475174, 0.003512475174, 0.002290744567, 0.00122173049, -0.0, -0.00244346098, -0.002290744567, -0.004886921961, -0.004886921961, -0.007483099122, -0.007483099122, -0.009926560335, -0.008704829961, -0.007483099122, -0.007483099122, -0.007330383174, -0.003665191587, -0.00244346098, -0.00244346098, -0.00122173049, -0.00122173049, -0.0, 0.00244346098, 0.003665191587, 0.004886921961, 0.006108652335, 0.006108652335, 0.007330383174, 0.009621127509, 0.007483099122, 0.009773843922, 0.008552113548, 0.009773843922, 0.0109955743, 0.008552113548, 0.008399397135, 0.008399397135, 0.009468411095, 0.0007635815418, 0.001069014193, nan, -0.03634648025, -0.0313068442, -0.0251981914, -0.0262672063, -0.02764165215, -0.01298088674, -0.01679879427, -0.01695151068, -0.0171042271, -0.01725694351, -0.01130100712, -0.002748893574, 0.003359758761, 0.009315694682, 0.01298088674, 0.01664607786, 0.01786780916, 0.01679879427, 0.01191187184, 0.008399397135, 0.001069014193, -0.005039638374, -0.009926560335, -0.01237002108, -0.01237002108, -0.007635815535, -0.001527163084, 0.001985311974, 0.003359758761, 0.004581489135, 0.005803219974, 0.007177666761, 0.007177666761, 0.004734205548, -0.00244346098, -0.008552113548, -0.01588249579, -0.02092213556, -0.01496619824, -0.0125227375, -0.008704829961, -0.008704829961, -0.005039638374, -0.006108652335, -0.006108652335, -0.0109955743, -0.01939497143, -0.02794708498, -0.03527746722, -0.0415388383, -0.03665191308, -0.02443460934, -0.01466076635, -0.003665191587, 0.006108652335, 0.008552113548, 0.007177666761, 0.002290744567, -0.001374446787, -0.003817907767, 0.01206458826, 0.01802052557, 0.02779436857, 0.03878994286, 0.05222897977, 0.06200282276, 0.06933320314, 0.07070764899, 0.07925976813, 0.07696902007, 0.0720821023, 0.06475171447, 0.05497787148, 0.04627304152, 0.04138612002, 0.04031710699, 0.04291328415, 0.04291328415, 0.04046982154, 0.03680463135, 0.02687807009, 0.01817324013, 0.01450804994, 0.01679879427, 0.0239764601, 0.02748893574, 0.02748893574, 0.0201585535, 0.01893682219, 0.01893682219, 0.01023199316, 0.01130100712, 0.01130100712, 0.01496619824, 0.02092213556, 0.02458732575, 0.02596177347, 0.03924809024, 0.05131268129, 0.05864306539, 0.06597344577, 0.06215553731, 0.05833763257, 0.04489859566, 0.04123340547, 0.04474587739, 0.05787948146, 0.07483099401, 0.07483099401, 0.0723875314, 0.07376197726, 0.07620543987, 0.07742717117, 0.07956519723, 0.07803803682, 0.06658431143, 0.05650503561, 0.03069597855, 0.01481348183, -0.003665191587, -0.02183843218, -0.06444628537, -0.06215553731, -0.06856962293, -0.09224065393, -0.1111774743, -0.1117883399, -0.1110247597, -0.1104138941, -0.1156062484, -0.1227839142, -0.125838235, -0.1484402567, -0.1893682331, -0.1876883507, -0.1814269722, -0.2151772827, -0.2620611787, -0.2371684313, -0.1560760736, -0.09300423414, -0.03878994286, 0.01145372353, 0.03451388702, 0.04382958263, 0.04474587739, 0.04886921868, 0.03711006418, 0.01954768784, 0.01924225502, 0.03268129006, 0.0354301855]"
3,1,sitting,1_sitting,375,16.06640407,18.55640407,"[-3.249453068, -3.230310678, -3.187838078, -3.125624657, -3.034697294, -3.015554667, -2.96291256, -2.92941308, -2.94377017, -2.991626501, -3.044268608, -3.144767046, -3.16869545, -3.15433836, -3.158525944, -3.115455151, -3.048455954, -3.024527788, -2.981456995, -2.986242771, -3.043670416, -3.03888464, -3.105883837, -3.196810961, -3.287738323, -3.292523861, -3.316452265, -3.311666489, -3.24466753, -3.206382275, -3.182454109, -3.201596737, -3.235096216, -3.306880951, -3.321835995, -3.384049416, -3.369692564, -3.388236761, -3.383451223, -3.359523058, -3.302693367, -3.278765202, -3.221337557, -3.226123095, -3.159124136, -3.192623615, -3.24466753, -3.249453068, -3.306880951, -3.311666489, -3.302693367, -3.226123095, -3.125624657, -3.07298255, -3.096910715, -3.125624657, -3.149552822, -3.131008387, -3.073580742, -3.016152859, -3.025724173, -3.011367321, -2.973082066, -2.915654421, -2.910270452, -2.876770973, -2.863012314, -2.867797852, -2.848655462, -2.925225735, -3.007179976, -3.025724173, -3.029911757, -3.05862546, -3.211168051, -3.287738323, -3.306282759, -3.316452265, -3.288336515, -3.283550978, -3.18843627, -3.092125177, -3.081955671, -3.172284603, -3.248854876, -3.263810158, -3.216551781, -3.101696253, -3.029911757, -3.043670416, -3.124428272, -3.081357241, -2.947359324, -2.740978241, -2.684148788, -2.650649309, -2.646461725, -2.325823545, -2.316850424, -2.474178553, -2.656033039, -2.813361168, -2.936591625, -3.007179976, -3.049652576, -2.863012314, -2.547757864, -2.638087034, -2.64825654, -2.365903378, -2.389831543, -3.096910715, -3.549752474, -3.530011654, -3.449253798, -3.086143017, -2.890529871, -2.565704107, -2.360519648, -2.398804665, -2.308475733, -2.383849621, -2.478366137, -2.654238462, -2.849851847, -2.980260611, -2.876172781, -2.752344131, -2.651845694, -2.584846735, -2.311466694, -2.18105793, -2.266601324, -2.787638426, -3.251846075, -3.347558975, -3.367299557, -3.224328518, -2.755335331, -2.415554523, -2.467598438, -2.496910334, -2.330011129, -2.261815548, -2.510071039, -2.629712105, -2.324028969, -2.132603168, -2.199602127, -2.309073925, -2.543570518, -2.475973129, -2.542374134, -2.843869686, -3.131008387, -2.844467878, -2.656033039, -2.674577475, -2.737389088, -2.824727058, -2.973082066, -2.838485956, -2.54117775, -2.450250387, -2.661417007, -2.973082066, -3.392424345, -3.889533281, -3.268595695, -2.785245657, -2.574677229, -2.426322222, -2.684148788, -2.555534601, -2.703291416, -2.947359324, -3.03888464, -2.913261652, -2.836092949, -2.78285265, -2.520240545, -2.663211584, -2.682354212, -2.539382935, -2.266601324, -2.223530531, -2.67338109, -2.309672117, -2.060818434, -1.955534339, -1.755135417, -1.625923038, -1.797009826, -1.713261008, -1.984248161, -2.200798512, -1.963310957, -1.911865234, -1.611566067, -1.50269258, -1.704886079, -1.795813441, -1.83469677, -1.797009826, -1.701296926, -1.524227977, -1.256830096, -1.353141189, -1.295115232, -1.543370605, -1.670788407, -1.774278045, -1.721635938, -1.645065546, -1.526022673, -1.469193101, -1.478764415, -1.526620865, -1.588834286, -1.641476393, -1.723430514, -1.670788407, -1.609173179, -1.5224334, -1.575075507, -1.47457695, -1.488335729, -1.540977836, -1.593021631, -1.760519266, -1.957328916, -2.120639086, -2.111067772, -2.09671092, -2.039283037, -2.067996979, -2.277967215, -1.9812572, -1.918445587, -1.8855443, -1.861616015, -1.832303882, -1.784447432, -1.77009058, -1.799402595, -1.789831281, -1.789831281, -1.641476393, -1.478764415, -1.473978758]","[-9.251849174, -9.218349457, -9.208179474, -9.20758152, -9.202795982, -9.187840462, -9.17886734, -9.183652878, -9.193224907, -9.235696793, -9.269794464, -9.317052841, -9.331410408, -9.312865257, -9.361320496, -9.376275063, -9.337990761, -9.290133476, -9.300303459, -9.257232666, -9.214161873, -9.204590797, -9.166305542, -9.165707588, -9.160921097, -9.180064201, -9.247062683, -9.26142025, -9.203393936, -9.20399189, -9.218349457, -9.199206352, -9.194420815, -9.241679192, -9.212367058, -9.174081802, -9.097511292, -9.107681274, -9.122037888, -9.126823425, -9.136395454, -9.288937569, -9.307481766, -9.307481766, -9.327222824, -9.284749985, -9.237491608, -9.223732948, -9.208778381, -9.232108116, -9.312865257, -9.355937004, -9.375079155, -9.422935486, -9.42712307, -9.340981483, -9.239884377, -9.229117393, -9.238688469, -9.27278614, -9.31525898, -9.353543282, -9.343972206, -9.445667267, -9.345169067, -9.288339615, -9.292527199, -9.348757744, -9.367302895, -9.366703987, -9.346963882, -9.248259544, -9.087342262, -8.997013092, -8.964710236, -9.056833267, -9.205786705, -9.19980526, -9.183652878, -9.139386177, -9.000602722, -9.00179863, -9.061020851, -8.996415138, -8.995218277, -9.032905579, -9.159725189, -9.255437851, -9.293723106, -9.238089561, -9.010173798, -8.892327309, -8.68774128, -8.736195564, -8.544769287, -8.754141808, -8.848658562, -8.880961418, -8.899505615, -9.100502968, -9.330811501, -9.404391289, -9.131608963, -8.668000221, -8.268398285, -7.8341012, -7.63190794, -7.670791149, -7.937591076, -8.129016876, -8.501698494, -9.144769669, -9.617352486, -9.495318413, -9.227322578, -8.890532494, -9.080761909, -8.983254433, -8.81456089, -8.64167881, -8.268398285, -8.127222061, -8.083553314, -7.865208149, -7.52722168, -7.379465103, -7.207779884, -7.343572617, -7.718049526, -7.535596848, -7.275377274, -7.159923553, -7.068397999, -6.686144829, -6.407381058, -6.535397053, -6.802794933, -6.686144829, -6.370292187, -6.400202274, -6.3846488, -5.598606586, -5.481956482, -6.44985342, -6.524031162, -6.22193718, -5.911468506, -5.610570908, -5.012963295, -5.870790482, -6.256632805, -6.16809845, -6.154938221, -5.968895912, -6.19382143, -6.110671043, -6.536593437, -6.080760479, -5.581857204, -5.084748268, -5.802595139, -6.263811588, -5.458028316, -5.020142078, -4.844867706, -4.086342812, -5.703292847, -6.032904148, -4.925625324, -4.660620213, -4.608576298, -4.536791801, -3.658027649, -3.022733212, -2.846860647, -2.818146944, -2.639283419, -2.484946251, -2.283350945, -2.036292076, -1.756929994, -2.399402857, -2.347957134, -2.087737799, -1.933998942, -1.810170293, -1.676172256, -1.064806104, -0.860219717, -0.6687939167, 0.2931207716, 1.107876897, 1.118046403, 1.955534339, 2.694916487, 2.150549412, 1.095314622, 0.3643072546, -0.5353940725, -1.061216831, -1.500898004, -1.804786444, -1.860419631, -1.448255897, -0.708275497, 0.02333002165, 0.3924229145, 1.469193101, 1.621735573, 1.403390527, 1.389033556, 0.9379864931, 0.6735795736, 0.4636093974, 0.3936193287, 0.2003988922, 0.1531406492, 0.06699903309, 0.04366901144, 0.06759724021, 0.107078813, 0.2566302419, 0.3481557071, 0.4761717021, 0.4223332107, 0.2638086975, 0.09092725813, 0.004785645287, -0.07298108935, -0.2733799815, -0.3996013701, -0.5126622319, -0.5796613097, -0.679561615, -0.717248559, -0.70348984, -0.7477570772, -0.8578268886, -1.089930773, -1.040877819, -1.007976532, -1.013360381, -1.033101201, -1.028913736, -1.103689432, -1.183848977, -1.183848977, -1.078564763, -0.9637092948, -1.098305583]","[0.8075776696, 0.8416753411, 0.7507480979, 0.679561615, 0.6747759581, 0.6221339107, 0.6993024349, 0.7088736892, 0.6993024349, 0.626919508, 0.6311069727, 0.5826523304, 0.5826523304, 0.6687939167, 0.7405785918, 0.8219345808, 0.8991031051, 0.8997012973, 0.94277215, 1.009771109, 0.9667003751, 0.9475577474, 0.9236295223, 0.8422735929, 0.8464609981, 0.8081758618, 0.8267202377, 0.7836494446, 0.7555337548, 0.798604548, 0.87517488, 0.87517488, 0.8273184299, 0.7310073376, 0.6783652306, 0.6496513486, 0.6502495408, 0.6885347366, 0.769890666, 0.745962441, 0.7124629617, 0.6209374666, 0.5347958803, 0.5108676553, 0.6879364848, 0.7262216806, 0.851246655, 0.9613165259, 0.8368897438, 0.7549355626, 0.6059823632, 0.6203392744, 0.6496513486, 0.6783652306, 0.5724828243, 0.5300102234, 0.4588237405, 0.2961117923, 0.3152543902, 0.4253242314, 0.2817548811, 0.3433700502, 0.3391826153, 0.4725824594, 0.5258227587, 0.5790630579, 0.5024927258, 0.3631108403, 0.2673979402, 0.162113741, 0.04187439755, 0.2626122832, 0.613160789, 0.709471941, 0.8482556343, 1.019342422, 1.085743308, 0.9182456732, 0.6119644046, 0.4636093974, 0.4552344978, 0.709471941, 0.9870393276, 1.283749342, 1.164108157, 0.9816554785, 0.6891329288, 0.6789634228, 0.7028916478, 0.9954141974, 1.250249863, 1.524227977, 1.727019787, 1.832902193, 1.877767563, 1.674975872, 1.444666624, 1.3310076, 1.244866014, 1.189831018, 1.278963685, 1.584048629, 2.298904419, 3.105883837, 3.486940861, 3.68674159, 3.626920938, 3.62153697, 3.457030535, 3.543172121, 3.401995659, 3.595814228, 4.089334011, 4.444668293, 4.532604218, 4.244269371, 4.06660223, 3.838685751, 3.658625841, 3.568296671, 3.566502094, 4.021736622, 4.658825874, 5.679364681, 5.862415314, 5.2737813, 4.561916351, 4.125824451, 4.286741734, 4.259224415, 4.779065132, 5.422136307, 6.049654007, 6.155536175, 5.901896954, 5.685346603, 5.572884083, 5.291727066, 5.405984402, 5.64167738, 6.153741837, 5.971887112, 5.681159019, 5.943771362, 6.263213158, 6.163911343, 6.315257072, 6.418746948, 6.508477688, 6.650850773, 6.336194515, 6.70588541, 6.916453838, 6.935596466, 6.904489517, 6.685546398, 7.464410305, 7.993822098, 7.877171993, 7.204789162, 7.089335442, 7.41236639, 7.950153351, 8.312665939, 7.877171993, 7.416553974, 8.017151833, 7.850851059, 7.711469173, 8.23729229, 8.305487633, 8.315656662, 8.621937752, 8.779864311, 9.034101486, 8.913862228, 8.694320679, 9.208179474, 9.908679008, 10.16889763, 9.927821159, 10.09531879, 10.31127071, 10.07856941, 9.990034103, 10.06720352, 10.02831936, 10.32084274, 10.53380394, 10.5355978, 10.54217815, 11.10808086, 11.77328587, 13.32562923, 14.40658665, 13.43031502, 12.36610699, 11.40897846, 10.67617607, 9.80219841, 8.903095245, 8.503493309, 8.253443718, 8.184649467, 8.462815285, 8.568697929, 8.50469017, 8.568697929, 8.651249886, 9.07059288, 9.850652695, 10.7042923, 10.9806633, 10.85025406, 10.63011456, 10.14556789, 9.977472305, 10.04387283, 9.94277668, 9.937990189, 9.693324089, 9.531808853, 9.456435204, 9.663414001, 9.830313683, 9.925428391, 10.03430176, 10.06241703, 10.16710377, 10.08873844, 9.574281693, 9.252447128, 9.237491608, 9.203393936, 9.055039406, 9.169894218, 9.32662487, 9.408578873, 9.738189697, 9.60419178, 9.652647018, 9.777072906, 9.868000984, 9.95414257, 9.671191216, 9.483952522, 9.483952522, 9.566504478, 9.587442398, 9.62931633]","[0.01359175146, 0.02199114859, 0.02672535367, 0.02916881628, 0.02290744707, 0.009468411095, 0.0007635815418, -0.003054326167, 0.001832595794, 0.01298088674, 0.01924225502, 0.01572977938, 0.008399397135, -0.007483099122, -0.003970623948, 0.008246680722, 0.01282817032, 0.01649336144, 0.02138028294, 0.03100141138, 0.04566217586, 0.05299255997, 0.04948008433, 0.03726277873, 0.02641992271, 0.01038470957, 0.005497787148, -0.0006108652451, -0.009010262787, -0.003970623948, 0.008246680722, 0.02412917651, 0.03756821156, 0.03283400834, 0.01817324013, 0.0, -0.0171042271, -0.03298672289, -0.03313944116, -0.03069597855, -0.02229658142, -0.0262672063, -0.0423024185, -0.06185010448, -0.06933320314, -0.06414084882, -0.03833179548, -0.009010262787, 0.01282817032, 0.01496619824, 0.007483099122, 0.002596177394, 0.003970623948, 0.01634064503, 0.03985895589, 0.06582073122, 0.08674286306, 0.1004873365, 0.1007927656, 0.1143845171, 0.1291979998, 0.118049711, 0.09498954564, 0.08399397135, 0.08918632567, 0.1088867337, 0.1371392459, 0.1592831165, 0.1554652005, 0.145691365, 0.1423316002, 0.1511891484, 0.1742493063, 0.2183843255, 0.287106663, 0.3975205719, 0.4954117239, 0.5542075038, 0.5593998432, 0.5270239711, 0.4624249935, 0.4086688459, 0.3988949955, 0.4205807149, 0.4570799172, 0.487775892, 0.4896084964, 0.4743368626, 0.4398229718, 0.4111123085, 0.389426589, 0.38576141, 0.4068362415, 0.4433354437, 0.4906775057, 0.5422956347, 0.5968153477, 0.6615670323, 0.7163922191, 0.7519751191, 0.7652614117, 0.7577783465, 0.7683157325, 0.8205447197, 0.8903360963, 0.9259189963, 0.967610538, 1.026558995, 1.091005325, 1.120632291, 1.09848845, 1.070541382, 1.072068453, 1.083827615, 1.082758665, 1.060614824, 1.020450354, 0.9784533978, 0.9572258592, 0.9500481486, 0.9502009153, 0.9708175659, 1.019228697, 1.124602914, 1.225395679, 1.258993268, 1.17637372, 1.089172721, 1.01907599, 0.9783006907, 1.001819015, 1.087034702, 1.24906671, 1.383915186, 1.401935697, 1.368338108, 1.344208956, 1.303433776, 1.275333881, 1.292438149, 1.348026872, 1.404379249, 1.414763927, 1.444849014, 1.486693263, 1.515862107, 1.526857734, 1.534035325, 1.498452425, 1.479057431, 1.440267563, 1.41720736, 1.429730058, 1.429577351, 1.403004766, 1.321148753, 1.297783256, 1.375668526, 1.44607079, 1.474170566, 1.36772728, 1.318094492, 1.33519876, 1.382387996, 1.393536329, 1.357800722, 1.349859476, 1.361465931, 1.367116451, 1.405448198, 1.431257248, 1.422705173, 1.486693263, 1.506088257, 1.50181222, 1.490358472, 1.452332139, 1.406822681, 1.387885809, 1.371697903, 1.327410221, 1.267239928, 1.256091714, 1.243721604, 1.218981624, 1.185689449, 1.138958216, 1.081689596, 1.032362223, 0.9685268402, 0.8849910498, 0.7225008607, 0.5413793325, 0.4344778955, 0.2510656118, 0.1592831165, 0.2023491114, 0.2843577862, 0.2932153046, 0.2096794993, 0.07788532227, -0.06994406879, -0.1426370293, -0.176998198, -0.1540907621, -0.09208793938, -0.03756821156, 0.03176499158, 0.0833831057, 0.1209513173, 0.1624901593, 0.2446515262, 0.3159700334, 0.3379611969, 0.3061962128, 0.2370157093, 0.1459967941, 0.0853684172, 0.07422012836, 0.07971791178, 0.06352998316, 0.02779436857, -0.007788531948, -0.03191770986, -0.04260785133, -0.04856378585, -0.04825835302, -0.05635231733, -0.05665775016, -0.05177082866, -0.06948592514, -0.1049161032, -0.1186605766, -0.1212567538, -0.1215621829, -0.1307251602, -0.1285871267, -0.1076650023, -0.07559457421, -0.08597928286, -0.1108720452, -0.1154535338, -0.1154535338, -0.1148426682, -0.1114829108, -0.1227839142, -0.1227839142, -0.08643743396, -0.04749477282, -0.01954768784]","[-0.04535674304, -0.02565634064, -0.01588249579, -0.01206458826, -0.00244346098, -0.0001527163113, 0.004734205548, 0.01450804994, 0.01954768784, 0.01481348183, 0.005039638374, -0.01832595654, -0.02336559631, -0.02229658142, -0.01481348183, 0.00122173049, 0.01970040426, 0.0270307865, 0.03573561832, 0.05421429127, 0.05818491429, 0.0532979928, 0.04352414981, 0.03115412779, 0.02107485011, 0.02092213556, 0.02687807009, 0.02550362423, 0.007024950348, -0.003970623948, -0.0001527163113, 0.008704829961, 0.01007927675, -0.001069014193, -0.01359175146, -0.03222314268, -0.03985895589, -0.04489859566, -0.03894266114, -0.02916881628, -0.01069014147, 0.008857546374, 0.01970040426, 0.009773843922, 0.0171042271, 0.0, -0.009468411095, 0.00320704258, 0.02306016348, 0.05375614017, 0.06582073122, 0.06582073122, 0.05726861581, 0.04398229718, 0.01985312067, 0.009010262787, -0.0004581489484, -0.02367102914, -0.04581489414, -0.04688390717, -0.05894849449, -0.05787948146, -0.0716239512, -0.08139779419, -0.108275868, -0.1166752651, -0.1127046347, -0.1235474944, -0.1101084575, -0.1090394482, -0.1397354305, -0.1545489132, -0.1359175146, -0.1269072592, -0.1284344196, -0.1247692257, -0.09300423414, -0.07880161703, -0.1058324054, -0.1699732542, -0.2209804952, -0.2461786866, -0.2388483137, -0.2055561543, -0.1818851233, -0.169209674, -0.2293798923, -0.2932153046, -0.3978259861, -0.4679227769, -0.5035057068, -0.5096143484, -0.5215262175, -0.4928155243, -0.4566217661, -0.4584543705, -0.4983133376, -0.5807801485, -0.6621779203, -0.7757988572, -0.8602510095, -0.9718865752, -1.040456176, -0.9847147465, -0.8562803864, -0.7368562222, -0.6185010672, -0.5112941861, -0.4529565871, -0.3543018401, -0.2390010208, -0.161115706, -0.06215553731, 0.09575312585, 0.1983784884, 0.2113593817, 0.1765400618, 0.09376781434, 0.01145372353, -0.1272126883, -0.2533563673, -0.3388774991, -0.3947716653, -0.3605632186, -0.2700024247, -0.1924225539, -0.1540907621, -0.1609629989, -0.1469130963, -0.1325577646, -0.1408044398, -0.1864666194, -0.3061962128, -0.3895792961, -0.3494149148, -0.3023782969, -0.2306016237, -0.09498954564, 0.007941247895, 0.008399397135, -0.01802052557, -0.0004581489484, -0.04474587739, -0.1142318025, -0.113926366, -0.08185594529, -0.07925976813, -0.07177666575, -0.06856962293, -0.09224065393, -0.1307251602, -0.1592831165, -0.1835650057, -0.1675297916, -0.09926560521, -0.02168571576, -0.0232128799, -0.06291911751, -0.09896016866, -0.1954768747, -0.2408336252, -0.302531004, -0.2973386645, -0.2339613885, -0.2386955917, -0.3481931984, -0.3966042697, -0.4460843503, -0.5161811113, -0.5317581892, -0.531452775, -0.5401576161, -0.5623014569, -0.5337435007, -0.4859432876, -0.4515821338, -0.4520402849, -0.4463897645, -0.3998112977, -0.3741549551, -0.3758348525, -0.3727805018, -0.3593414724, -0.3484986126, -0.3413209617, -0.3208569586, -0.3188716471, -0.2472477108, -0.2293798923, -0.2252565622, -0.2247984111, -0.1824959964, -0.122020334, -0.007483099122, 0.2486221492, 0.228310883, -0.0125227375, -0.2150245607, -0.3544545472, -0.3562871516, -0.3231477141, -0.275652945, -0.2568688393, -0.2524400651, -0.2109012306, -0.1479821056, -0.07651086897, -0.01374446787, -0.01328631863, -0.08872817457, -0.1823432744, -0.2941316068, -0.4195117056, -0.5184718966, -0.5360342264, -0.4938845634, -0.3674354553, -0.2134974003, -0.09224065393, -0.02840523422, -0.006566801574, 0.005345070735, 0.006108652335, 0.06841690838, 0.1540907621, 0.2510656118, 0.3346014321, 0.3923282027, 0.4193589985, 0.4256203473, 0.3543018401, 0.2324342281, 0.1426370293, 0.04321871698, -0.04138612002, -0.09804387391, -0.07483099401, -0.08063421398, -0.08643743396, -0.145385921, -0.2302961946, -0.2646573782, -0.263435632, -0.2021963894, -0.1776090711, -0.2625193298, -0.2625193298, -0.2168571651, -0.07544185966, 0.0719293803]","[0.001985311974, 0.003359758761, 0.004581489135, 0.005803219974, 0.007177666761, 0.007177666761, 0.004734205548, -0.00244346098, -0.008552113548, -0.01588249579, -0.02092213556, -0.01496619824, -0.0125227375, -0.008704829961, -0.008704829961, -0.005039638374, -0.006108652335, -0.006108652335, -0.0109955743, -0.01939497143, -0.02794708498, -0.03527746722, -0.0415388383, -0.03665191308, -0.02443460934, -0.01466076635, -0.003665191587, 0.006108652335, 0.008552113548, 0.007177666761, 0.002290744567, -0.001374446787, -0.003817907767, 0.01206458826, 0.01802052557, 0.02779436857, 0.03878994286, 0.05222897977, 0.06200282276, 0.06933320314, 0.07070764899, 0.07925976813, 0.07696902007, 0.0720821023, 0.06475171447, 0.05497787148, 0.04627304152, 0.04138612002, 0.04031710699, 0.04291328415, 0.04291328415, 0.04046982154, 0.03680463135, 0.02687807009, 0.01817324013, 0.01450804994, 0.01679879427, 0.0239764601, 0.02748893574, 0.02748893574, 0.0201585535, 0.01893682219, 0.01893682219, 0.01023199316, 0.01130100712, 0.01130100712, 0.01496619824, 0.02092213556, 0.02458732575, 0.02596177347, 0.03924809024, 0.05131268129, 0.05864306539, 0.06597344577, 0.06215553731, 0.05833763257, 0.04489859566, 0.04123340547, 0.04474587739, 0.05787948146, 0.07483099401, 0.07483099401, 0.0723875314, 0.07376197726, 0.07620543987, 0.07742717117, 0.07956519723, 0.07803803682, 0.06658431143, 0.05650503561, 0.03069597855, 0.01481348183, -0.003665191587, -0.02183843218, -0.06444628537, -0.06215553731, -0.06856962293, -0.09224065393, -0.1111774743, -0.1117883399, -0.1110247597, -0.1104138941, -0.1156062484, -0.1227839142, -0.125838235, -0.1484402567, -0.1893682331, -0.1876883507, -0.1814269722, -0.2151772827, -0.2620611787, -0.2371684313, -0.1560760736, -0.09300423414, -0.03878994286, 0.01145372353, 0.03451388702, 0.04382958263, 0.04474587739, 0.04886921868, 0.03711006418, 0.01954768784, 0.01924225502, 0.03268129006, 0.0354301855, 0.03573561832, 0.03237585723, 0.009315694682, -0.02947424725, -0.04520402849, -0.05390885845, -0.05299255997, -0.0282525178, 0.04062253982, 0.1311833113, 0.1948660165, 0.2344195396, 0.2437352389, 0.2040289938, 0.1673770845, 0.173333019, 0.212275669, 0.2596177161, 0.2556470931, 0.2652682364, 0.2898555696, 0.2922990322, 0.2727513313, 0.2863430977, 0.3155119121, 0.3446807265, 0.3530801237, 0.3346014321, 0.3200933933, 0.3203988075, 0.3307835162, 0.3283400834, 0.350025773, 0.3680463135, 0.3564398587, 0.3637702465, 0.3439171314, 0.3109304011, 0.2745839357, 0.2574796975, 0.2678644061, 0.3408628106, 0.4578435123, 0.4989241958, 0.4951062799, 0.5048801303, 0.5073235631, 0.4424191415, 0.4155410826, 0.3889684379, 0.3831652105, 0.3795000315, 0.3637702465, 0.3359758854, 0.3178026378, 0.3045163155, 0.3008511364, 0.2948952019, 0.2901609838, 0.2840523422, 0.2732094824, 0.2819143236, 0.2811507285, 0.2800817192, 0.2948952019, 0.2767219543, 0.2747366428, 0.2814561725, 0.2066251636, 0.0716239512, 0.01664607786, -0.02000583708, -0.03955352306, -0.08307767659, -0.1366810948, -0.1985312104, -0.2127338201, -0.2063197345, -0.1708895564, -0.1096503139, -0.0545197241, -0.01634064503, 0.06933320314, 0.09483683109, 0.0613919571, 0.01572977938, -0.01313360315, -0.02611448988, -0.03039054573, -0.03283400834, -0.03375030309, -0.03283400834, -0.03680463135, -0.04718934, -0.05161811411, -0.04780020565, -0.04535674304, -0.0415388383, -0.04856378585, -0.05910121277, -0.0853684172, -0.1142318025, -0.1346957833, -0.1504255682, -0.1661553532, -0.1629483104, -0.1452332139, -0.126143679, -0.108275868, -0.09285151958, -0.0833831057, -0.06261368841, -0.06994406879, -0.06887505949, -0.0716239512, -0.06459899992, -0.05986479297, -0.05742133409, -0.05711590126, -0.05207626149, -0.03665191308, -0.03665191308, -0.005955935922, 0.0007635815418, 0.0003054326226]"
4,1,sitting,1_sitting,500,17.31640407,19.80640407,"[-2.980260611, -2.876172781, -2.752344131, -2.651845694, -2.584846735, -2.311466694, -2.18105793, -2.266601324, -2.787638426, -3.251846075, -3.347558975, -3.367299557, -3.224328518, -2.755335331, -2.415554523, -2.467598438, -2.496910334, -2.330011129, -2.261815548, -2.510071039, -2.629712105, -2.324028969, -2.132603168, -2.199602127, -2.309073925, -2.543570518, -2.475973129, -2.542374134, -2.843869686, -3.131008387, -2.844467878, -2.656033039, -2.674577475, -2.737389088, -2.824727058, -2.973082066, -2.838485956, -2.54117775, -2.450250387, -2.661417007, -2.973082066, -3.392424345, -3.889533281, -3.268595695, -2.785245657, -2.574677229, -2.426322222, -2.684148788, -2.555534601, -2.703291416, -2.947359324, -3.03888464, -2.913261652, -2.836092949, -2.78285265, -2.520240545, -2.663211584, -2.682354212, -2.539382935, -2.266601324, -2.223530531, -2.67338109, -2.309672117, -2.060818434, -1.955534339, -1.755135417, -1.625923038, -1.797009826, -1.713261008, -1.984248161, -2.200798512, -1.963310957, -1.911865234, -1.611566067, -1.50269258, -1.704886079, -1.795813441, -1.83469677, -1.797009826, -1.701296926, -1.524227977, -1.256830096, -1.353141189, -1.295115232, -1.543370605, -1.670788407, -1.774278045, -1.721635938, -1.645065546, -1.526022673, -1.469193101, -1.478764415, -1.526620865, -1.588834286, -1.641476393, -1.723430514, -1.670788407, -1.609173179, -1.5224334, -1.575075507, -1.47457695, -1.488335729, -1.540977836, -1.593021631, -1.760519266, -1.957328916, -2.120639086, -2.111067772, -2.09671092, -2.039283037, -2.067996979, -2.277967215, -1.9812572, -1.918445587, -1.8855443, -1.861616015, -1.832303882, -1.784447432, -1.77009058, -1.799402595, -1.789831281, -1.789831281, -1.641476393, -1.478764415, -1.473978758, -1.555334687, -1.59840548, -1.684547186, -1.794616938, -1.823330879, -1.914258122, -1.871187329, -1.780260086, -1.746760488, -1.761117458, -1.746760488, -1.862214208, -1.828714728, -1.866999865, -1.814357758, -1.819143414, -1.723430514, -1.642074585, -1.637288928, -1.64626193, -1.655833244, -1.703689694, -1.703689694, -1.857428551, -1.655833244, -1.636690736, -1.55054903, -1.478764415, -1.508076429, -1.536790371, -1.545763373, -1.555334687, -1.531406522, -1.569691658, -1.64626193, -1.655833244, -1.674975872, -1.718046665, -1.622333765, -1.656431437, -1.66600275, -1.694716692, -1.79521513, -1.804188251, -1.761117458, -1.655833244, -1.627119422, -1.560120344, -1.488335729, -1.473978758, -1.507478237, -1.517049551, -1.588834286, -1.603191137, -1.564906001, -1.540977836, -1.512263894, -1.555932879, -1.575075507, -1.622333765, -1.694118381, -1.689332843, -1.770688772, -1.722832322, -1.660618901, -1.617548108, -1.574477315, -1.560120344, -1.569691658, -1.588834286, -1.656431437, -1.646860242, -1.612762451, -1.737787485, -1.780858278, -1.756331801, -1.751546144, -1.823330879, -1.765903115, -1.832303882, -2.081157446, -1.708475351, -1.66600275, -1.460219979, -1.641476393, -1.584646821, -0.9290133715, -1.430907965, -1.986042738, -2.172683001, -2.407179594, -2.30189538, -2.134397745, -2.143370867, -1.923829436, -1.957328916, -1.895115495, -1.890329838, -1.880758643, -1.861616015, -1.823929071, -1.808973908, -1.780260086, -1.794616938, -1.804188251, -1.789831281, -1.756331801, -1.780260086, -1.847259045, -1.856830359, -1.899901152, -1.875972986, -1.852044702, -1.852044702, -1.852044702, -1.842473388, -1.856830359, -1.852044702, -1.847259045, -1.899901152, -1.923829436, -1.995614052, -1.957328916, -1.962114573, -1.995614052]","[-7.379465103, -7.207779884, -7.343572617, -7.718049526, -7.535596848, -7.275377274, -7.159923553, -7.068397999, -6.686144829, -6.407381058, -6.535397053, -6.802794933, -6.686144829, -6.370292187, -6.400202274, -6.3846488, -5.598606586, -5.481956482, -6.44985342, -6.524031162, -6.22193718, -5.911468506, -5.610570908, -5.012963295, -5.870790482, -6.256632805, -6.16809845, -6.154938221, -5.968895912, -6.19382143, -6.110671043, -6.536593437, -6.080760479, -5.581857204, -5.084748268, -5.802595139, -6.263811588, -5.458028316, -5.020142078, -4.844867706, -4.086342812, -5.703292847, -6.032904148, -4.925625324, -4.660620213, -4.608576298, -4.536791801, -3.658027649, -3.022733212, -2.846860647, -2.818146944, -2.639283419, -2.484946251, -2.283350945, -2.036292076, -1.756929994, -2.399402857, -2.347957134, -2.087737799, -1.933998942, -1.810170293, -1.676172256, -1.064806104, -0.860219717, -0.6687939167, 0.2931207716, 1.107876897, 1.118046403, 1.955534339, 2.694916487, 2.150549412, 1.095314622, 0.3643072546, -0.5353940725, -1.061216831, -1.500898004, -1.804786444, -1.860419631, -1.448255897, -0.708275497, 0.02333002165, 0.3924229145, 1.469193101, 1.621735573, 1.403390527, 1.389033556, 0.9379864931, 0.6735795736, 0.4636093974, 0.3936193287, 0.2003988922, 0.1531406492, 0.06699903309, 0.04366901144, 0.06759724021, 0.107078813, 0.2566302419, 0.3481557071, 0.4761717021, 0.4223332107, 0.2638086975, 0.09092725813, 0.004785645287, -0.07298108935, -0.2733799815, -0.3996013701, -0.5126622319, -0.5796613097, -0.679561615, -0.717248559, -0.70348984, -0.7477570772, -0.8578268886, -1.089930773, -1.040877819, -1.007976532, -1.013360381, -1.033101201, -1.028913736, -1.103689432, -1.183848977, -1.183848977, -1.078564763, -0.9637092948, -1.098305583, -1.02711916, -0.9882357717, -0.912861824, -0.8452646136, -0.8117650747, -0.8069794178, -0.7070791125, -0.6777670383, -0.6388836503, -0.7298108935, -0.6532405615, -0.6765705943, -0.6000002623, -0.5856433511, -0.5569294691, -0.5084748268, -0.5856433511, -0.6005984545, -0.6622136831, -0.7058826685, -0.7734799385, -0.7920243144, -0.7920243144, -0.4510470629, -0.9320043921, -0.9224331379, -0.888933599, -0.9068797827, -0.9487541914, -0.9876375198, -0.9254241586, -0.9595218897, -0.950548768, -0.9990034699, -1.037288666, -1.022333503, -1.055832982, -1.022333503, -0.9493523836, -0.9774680734, -1.020538807, -0.9918249846, -0.9631111026, -1.087537885, -0.8967102766, -0.8638089895, -0.8350951076, -0.8015955687, -0.7543373108, -0.7686942816, -0.8309076428, -0.9068797827, -0.9445667267, -0.9690931439, -0.9260223508, -0.8829515576, -0.8829515576, -0.9062815905, -0.9158528447, -0.9308080077, -0.9924231768, -1.025922656, -1.074377418, -0.9888339639, -0.917647481, -0.9361918569, -0.9457631707, -0.9403793216, -0.9445667267, -0.9110672474, -0.9637092948, -0.7866404653, -0.6484549642, -0.7292127013, -0.7962117195, -0.8009973764, -0.8452646136, -0.8494520187, -0.8877372146, -0.8321040869, -0.970289588, -0.8829515576, -0.7052844763, -0.9445667267, -0.6681957245, -1.120439172, -0.5192425251, -0.9517452121, -1.165304661, -1.398006678, -1.164108157, -1.101894855, -1.074377418, -0.9367900491, -0.7920243144, -0.7968099117, -0.7872386575, -0.7926225066, -0.8398807645, -0.8919246197, -0.8913264275, -0.8925228715, -0.8979067206, -0.9074779749, -0.9170492887, -0.9068797827, -0.8919246197, -0.8877372146, -0.9020941257, -0.8877372146, -0.8255237937, -0.8015955687, -0.8159525394, -0.8835497499, -0.8835497499, -0.8931210637, -0.9068797827, -0.9403793216, -0.9074779749, -0.926620543, -0.8733802438, -0.8739784956, -0.8404789567, -0.8685946465, -0.8733802438]","[5.2737813, 4.561916351, 4.125824451, 4.286741734, 4.259224415, 4.779065132, 5.422136307, 6.049654007, 6.155536175, 5.901896954, 5.685346603, 5.572884083, 5.291727066, 5.405984402, 5.64167738, 6.153741837, 5.971887112, 5.681159019, 5.943771362, 6.263213158, 6.163911343, 6.315257072, 6.418746948, 6.508477688, 6.650850773, 6.336194515, 6.70588541, 6.916453838, 6.935596466, 6.904489517, 6.685546398, 7.464410305, 7.993822098, 7.877171993, 7.204789162, 7.089335442, 7.41236639, 7.950153351, 8.312665939, 7.877171993, 7.416553974, 8.017151833, 7.850851059, 7.711469173, 8.23729229, 8.305487633, 8.315656662, 8.621937752, 8.779864311, 9.034101486, 8.913862228, 8.694320679, 9.208179474, 9.908679008, 10.16889763, 9.927821159, 10.09531879, 10.31127071, 10.07856941, 9.990034103, 10.06720352, 10.02831936, 10.32084274, 10.53380394, 10.5355978, 10.54217815, 11.10808086, 11.77328587, 13.32562923, 14.40658665, 13.43031502, 12.36610699, 11.40897846, 10.67617607, 9.80219841, 8.903095245, 8.503493309, 8.253443718, 8.184649467, 8.462815285, 8.568697929, 8.50469017, 8.568697929, 8.651249886, 9.07059288, 9.850652695, 10.7042923, 10.9806633, 10.85025406, 10.63011456, 10.14556789, 9.977472305, 10.04387283, 9.94277668, 9.937990189, 9.693324089, 9.531808853, 9.456435204, 9.663414001, 9.830313683, 9.925428391, 10.03430176, 10.06241703, 10.16710377, 10.08873844, 9.574281693, 9.252447128, 9.237491608, 9.203393936, 9.055039406, 9.169894218, 9.32662487, 9.408578873, 9.738189697, 9.60419178, 9.652647018, 9.777072906, 9.868000984, 9.95414257, 9.671191216, 9.483952522, 9.483952522, 9.566504478, 9.587442398, 9.62931633, 9.701699257, 9.582057953, 9.754341125, 9.735198975, 9.71605587, 9.682557106, 9.759725571, 9.650253296, 9.626325607, 9.625727654, 9.631111145, 9.467801094, 9.497113228, 9.477970123, 9.478569031, 9.416355133, 9.488140106, 9.583852768, 9.564710617, 9.655039787, 9.683753014, 9.616155624, 9.58265686, 9.416355133, 9.806983948, 9.826126099, 9.788438797, 9.649655342, 9.452845573, 9.505488396, 9.568299294, 9.639486313, 9.692128181, 9.811769485, 9.811170578, 9.710672379, 9.686145782, 9.720243454, 9.548559189, 9.380462646, 9.457033157, 9.461818695, 9.389435768, 9.412766457, 9.490532875, 9.597013474, 9.644869804, 9.659825325, 9.703494072, 9.746564865, 9.688538551, 9.620942116, 9.572486877, 9.591629982, 9.601201057, 9.673583984, 9.606584549, 9.530014038, 9.519845009, 9.577272415, 9.538389206, 9.533603668, 9.561718941, 9.744172096, 9.783055305, 9.754341125, 9.735198975, 9.649057388, 9.572486877, 9.562915802, 9.500103951, 9.539586067, 9.646066666, 9.496515274, 9.46720314, 9.500701904, 9.672985077, 9.59641552, 9.610772133, 9.888339996, 9.738189697, 9.56770134, 9.56411171, 9.55394268, 9.70827961, 9.379864693, 9.721440315, 9.965508461, 9.602995872, 9.289535522, 9.337990761, 9.31525898, 9.555138588, 9.73340416, 9.572486877, 9.600603104, 9.586843491, 9.644271851, 9.610174179, 9.447462082, 9.433105469, 9.600603104, 9.734601021, 9.715457916, 9.667601585, 9.591031075, 9.543772697, 9.605388641, 9.547960281, 9.610174179, 9.576674461, 9.548559189, 9.572486877, 9.672387123, 9.68674469, 9.667601585, 9.576674461, 9.590433121, 9.638887405, 9.671789169, 9.581459999, 9.633503914, 9.62931633, 9.580862045, 9.552147865]","[1.258993268, 1.17637372, 1.089172721, 1.01907599, 0.9783006907, 1.001819015, 1.087034702, 1.24906671, 1.383915186, 1.401935697, 1.368338108, 1.344208956, 1.303433776, 1.275333881, 1.292438149, 1.348026872, 1.404379249, 1.414763927, 1.444849014, 1.486693263, 1.515862107, 1.526857734, 1.534035325, 1.498452425, 1.479057431, 1.440267563, 1.41720736, 1.429730058, 1.429577351, 1.403004766, 1.321148753, 1.297783256, 1.375668526, 1.44607079, 1.474170566, 1.36772728, 1.318094492, 1.33519876, 1.382387996, 1.393536329, 1.357800722, 1.349859476, 1.361465931, 1.367116451, 1.405448198, 1.431257248, 1.422705173, 1.486693263, 1.506088257, 1.50181222, 1.490358472, 1.452332139, 1.406822681, 1.387885809, 1.371697903, 1.327410221, 1.267239928, 1.256091714, 1.243721604, 1.218981624, 1.185689449, 1.138958216, 1.081689596, 1.032362223, 0.9685268402, 0.8849910498, 0.7225008607, 0.5413793325, 0.4344778955, 0.2510656118, 0.1592831165, 0.2023491114, 0.2843577862, 0.2932153046, 0.2096794993, 0.07788532227, -0.06994406879, -0.1426370293, -0.176998198, -0.1540907621, -0.09208793938, -0.03756821156, 0.03176499158, 0.0833831057, 0.1209513173, 0.1624901593, 0.2446515262, 0.3159700334, 0.3379611969, 0.3061962128, 0.2370157093, 0.1459967941, 0.0853684172, 0.07422012836, 0.07971791178, 0.06352998316, 0.02779436857, -0.007788531948, -0.03191770986, -0.04260785133, -0.04856378585, -0.04825835302, -0.05635231733, -0.05665775016, -0.05177082866, -0.06948592514, -0.1049161032, -0.1186605766, -0.1212567538, -0.1215621829, -0.1307251602, -0.1285871267, -0.1076650023, -0.07559457421, -0.08597928286, -0.1108720452, -0.1154535338, -0.1154535338, -0.1148426682, -0.1114829108, -0.1227839142, -0.1227839142, -0.08643743396, -0.04749477282, -0.01954768784, -0.006872233935, 0.002901609987, 0.001527163084, 0.003054326167, 0.002138028387, -0.00122173049, -0.0009162978968, -0.003054326167, -0.007788531948, -0.01511891466, -0.0190895386, -0.01527163107, -0.01313360315, 0.0003054326226, 0.003665191587, -0.008399397135, -0.02901609987, -0.05085453019, -0.06536258012, -0.084604837, -0.09529497474, -0.1033889428, -0.1128573567, -0.1317941695, -0.1128573567, -0.05390885845, -0.01160643995, -0.01053742506, -0.01542434748, -0.02260201424, -0.02351831272, -0.0282525178, -0.03558290005, -0.03711006418, -0.02641992271, -0.02275473066, -0.01679879427, -0.005039638374, -0.007483099122, -0.01572977938, -0.01786780916, -0.02229658142, -0.03649919853, -0.05299255997, -0.04932736978, -0.03512475267, -0.02687807009, -0.03298672289, -0.04520402849, -0.04535674304, -0.03573561832, -0.02733621933, -0.02611448988, -0.0201585535, -0.009315694682, -0.002138028387, 0.004886921961, 0.006108652335, 0.003512475174, 0.002138028387, 0.007024950348, 0.006261368748, 0.004276056774, 0.01542434748, 0.02748893574, 0.04199698567, 0.05161811411, 0.06123924255, 0.05619960278, 0.04780020565, 0.02962696366, 0.02611448988, 0.02733621933, 0.01053742506, -0.008704829961, -0.01847867295, -0.01160643995, 0.004276056774, 0.01878410578, 0.0293215327, 0.04138612002, 0.01343903504, -0.003512475174, -0.01786780916, -0.01282817032, -0.01847867295, -0.0004581489484, 0.0415388383, 0.05971207842, 0.02504547499, -0.01053742506, -0.01450804994, -0.01725694351, -0.006414085161, 0.002290744567, 0.0, -0.0109955743, -0.01572977938, -0.01588249579, -0.01328631863, -0.01664607786, -0.01893682219, -0.01053742506, 0.0003054326226, 0.009926560335, 0.007483099122, 0.002596177394, -0.003512475174, 0.0001527163113, 0.003817907767, 0.004886921961, 0.005192354787, 0.002901609987, 0.002748893574, 0.01114829071, 0.01084285788, 0.005955935922, -0.003970623948, 0.005345070735, 0.01725694351, 0.02336559631, 0.01588249579, 0.01069014147, 0.006872233935, 0.007788531948]","[-0.1924225539, -0.1540907621, -0.1609629989, -0.1469130963, -0.1325577646, -0.1408044398, -0.1864666194, -0.3061962128, -0.3895792961, -0.3494149148, -0.3023782969, -0.2306016237, -0.09498954564, 0.007941247895, 0.008399397135, -0.01802052557, -0.0004581489484, -0.04474587739, -0.1142318025, -0.113926366, -0.08185594529, -0.07925976813, -0.07177666575, -0.06856962293, -0.09224065393, -0.1307251602, -0.1592831165, -0.1835650057, -0.1675297916, -0.09926560521, -0.02168571576, -0.0232128799, -0.06291911751, -0.09896016866, -0.1954768747, -0.2408336252, -0.302531004, -0.2973386645, -0.2339613885, -0.2386955917, -0.3481931984, -0.3966042697, -0.4460843503, -0.5161811113, -0.5317581892, -0.531452775, -0.5401576161, -0.5623014569, -0.5337435007, -0.4859432876, -0.4515821338, -0.4520402849, -0.4463897645, -0.3998112977, -0.3741549551, -0.3758348525, -0.3727805018, -0.3593414724, -0.3484986126, -0.3413209617, -0.3208569586, -0.3188716471, -0.2472477108, -0.2293798923, -0.2252565622, -0.2247984111, -0.1824959964, -0.122020334, -0.007483099122, 0.2486221492, 0.228310883, -0.0125227375, -0.2150245607, -0.3544545472, -0.3562871516, -0.3231477141, -0.275652945, -0.2568688393, -0.2524400651, -0.2109012306, -0.1479821056, -0.07651086897, -0.01374446787, -0.01328631863, -0.08872817457, -0.1823432744, -0.2941316068, -0.4195117056, -0.5184718966, -0.5360342264, -0.4938845634, -0.3674354553, -0.2134974003, -0.09224065393, -0.02840523422, -0.006566801574, 0.005345070735, 0.006108652335, 0.06841690838, 0.1540907621, 0.2510656118, 0.3346014321, 0.3923282027, 0.4193589985, 0.4256203473, 0.3543018401, 0.2324342281, 0.1426370293, 0.04321871698, -0.04138612002, -0.09804387391, -0.07483099401, -0.08063421398, -0.08643743396, -0.145385921, -0.2302961946, -0.2646573782, -0.263435632, -0.2021963894, -0.1776090711, -0.2625193298, -0.2625193298, -0.2168571651, -0.07544185966, 0.0719293803, 0.1420261711, 0.1543961912, 0.1568396538, 0.1408044398, 0.1102611795, 0.08200865984, 0.05131268129, 0.0232128799, -0.003817907767, -0.003970623948, 0.02061670274, 0.01695151068, 0.0354301855, 0.04902193695, 0.07971791178, 0.06001751125, 0.02794708498, 0.005650503561, -0.01664607786, -0.04382958263, -0.07956519723, -0.129808858, -0.1594358236, -0.228463605, -0.1582140923, -0.0545197241, 0.01206458826, 0.03420845419, 0.0293215327, 0.01450804994, -0.01740965992, -0.03711006418, -0.04459316283, -0.007788531948, 0.02290744707, 0.02168571576, 0.04260785133, 0.08323039114, 0.08811730891, 0.04871650413, 0.02657263726, -0.01634064503, -0.07040221989, -0.1246165112, -0.1233947799, -0.07666359097, -0.04703662544, -0.0532979928, -0.05467243865, -0.04001167417, -0.02641992271, -0.01038470957, -0.003054326167, 0.01542434748, 0.03023782931, 0.05115996301, 0.07834346592, 0.08567385375, 0.09178250283, 0.1029307917, 0.104152523, 0.06246097013, 0.01832595654, 0.01359175146, 0.03084869497, 0.05177082866, 0.07651086897, 0.09621127695, 0.0972802937, 0.08994990587, 0.06643159688, 0.05283984542, 0.0430659987, 0.006108652335, -0.02474004216, -0.02611448988, 0.01206458826, 0.02809980139, 0.04428773001, 0.0849102661, 0.1033889428, 0.08597928286, 0.0601702258, 0.02336559631, 0.008857546374, -0.03924809024, -0.003359758761, 0.08552113175, 0.1088867337, 0.02367102914, 0.02794708498, 0.06200282276, 0.09010262042, 0.1110247597, 0.09162978828, 0.08185594529, 0.06826419383, 0.06078109145, 0.07299839705, 0.06322455406, 0.0239764601, 0.009315694682, 0.02412917651, 0.05131268129, 0.06734789163, 0.06490442902, 0.05864306539, 0.05986479297, 0.06475171447, 0.07223481685, 0.07712173462, 0.05742133409, 0.03054326214, 0.04886921868, 0.07345654815, 0.09804387391, 0.0968221426, 0.1003346145, 0.1434006095, 0.1777617931, 0.1840231568, 0.1985312104, 0.2170098722, 0.2390010208, 0.2599231601]","[0.03573561832, 0.03237585723, 0.009315694682, -0.02947424725, -0.04520402849, -0.05390885845, -0.05299255997, -0.0282525178, 0.04062253982, 0.1311833113, 0.1948660165, 0.2344195396, 0.2437352389, 0.2040289938, 0.1673770845, 0.173333019, 0.212275669, 0.2596177161, 0.2556470931, 0.2652682364, 0.2898555696, 0.2922990322, 0.2727513313, 0.2863430977, 0.3155119121, 0.3446807265, 0.3530801237, 0.3346014321, 0.3200933933, 0.3203988075, 0.3307835162, 0.3283400834, 0.350025773, 0.3680463135, 0.3564398587, 0.3637702465, 0.3439171314, 0.3109304011, 0.2745839357, 0.2574796975, 0.2678644061, 0.3408628106, 0.4578435123, 0.4989241958, 0.4951062799, 0.5048801303, 0.5073235631, 0.4424191415, 0.4155410826, 0.3889684379, 0.3831652105, 0.3795000315, 0.3637702465, 0.3359758854, 0.3178026378, 0.3045163155, 0.3008511364, 0.2948952019, 0.2901609838, 0.2840523422, 0.2732094824, 0.2819143236, 0.2811507285, 0.2800817192, 0.2948952019, 0.2767219543, 0.2747366428, 0.2814561725, 0.2066251636, 0.0716239512, 0.01664607786, -0.02000583708, -0.03955352306, -0.08307767659, -0.1366810948, -0.1985312104, -0.2127338201, -0.2063197345, -0.1708895564, -0.1096503139, -0.0545197241, -0.01634064503, 0.06933320314, 0.09483683109, 0.0613919571, 0.01572977938, -0.01313360315, -0.02611448988, -0.03039054573, -0.03283400834, -0.03375030309, -0.03283400834, -0.03680463135, -0.04718934, -0.05161811411, -0.04780020565, -0.04535674304, -0.0415388383, -0.04856378585, -0.05910121277, -0.0853684172, -0.1142318025, -0.1346957833, -0.1504255682, -0.1661553532, -0.1629483104, -0.1452332139, -0.126143679, -0.108275868, -0.09285151958, -0.0833831057, -0.06261368841, -0.06994406879, -0.06887505949, -0.0716239512, -0.06459899992, -0.05986479297, -0.05742133409, -0.05711590126, -0.05207626149, -0.03665191308, -0.03665191308, -0.005955935922, 0.0007635815418, 0.0003054326226, -0.0006108652451, -0.00167987938, -0.002901609987, -0.004276056774, -0.005650503561, -0.007024950348, -0.005955935922, -0.009773843922, -0.0160352122, -0.01970040426, -0.02443460934, -0.0232128799, -0.02550362423, -0.02916881628, -0.03268129006, -0.03634648025, -0.04016438872, -0.0415388383, -0.04031710699, -0.03558290005, -0.03451388702, -0.03237585723, -0.03252857551, -0.003512475174, -0.0190895386, -0.02474004216, -0.02565634064, -0.03161227703, -0.03161227703, -0.0293215327, -0.022143865, -0.01863138936, -0.01740965992, -0.01359175146, -0.01343903504, -0.01466076635, -0.01817324013, -0.01802052557, -0.01435533352, -0.009621127509, -0.004886921961, 0.003512475174, 0.004428773187, 0.00167987938, 0.00167987938, 0.005650503561, 0.004581489135, 0.003359758761, 0.005803219974, 0.007024950348, 0.01206458826, 0.01450804994, 0.01572977938, 0.01588249579, 0.01588249579, 0.01359175146, 0.007635815535, 0.003970623948, -0.0009162978968, -0.004428773187, -0.004428773187, -0.007177666761, -0.008552113548, -0.008552113548, -0.006108652335, -0.003512475174, -0.004734205548, -0.004581489135, -0.005803219974, -0.008246680722, -0.009621127509, -0.008399397135, -0.006108652335, -0.007483099122, -0.007635815535, -0.009926560335, -0.01343903504, -0.01588249579, -0.02306016348, -0.02901609987, -0.02153299935, -0.04001167417, -0.06688974798, -0.09025534242, -0.1014036313, -0.0552833043, -0.09773843735, -0.1035416573, -0.07895433158, -0.05131268129, 0.004886921961, 0.03191770986, 0.0430659987, 0.04199698567, 0.02962696366, 0.02474004216, 0.02229658142, 0.02580905706, 0.03329215571, 0.03069597855, 0.02199114859, 0.01343903504, 0.006108652335, 0.002596177394, 0.002596177394, 0.002596177394, 0.003817907767, 0.005039638374, 0.009926560335, 0.008857546374, 0.007635815535, 0.007483099122, 0.004886921961, 0.0001527163113, -0.0009162978968, 0.0004581489484, -0.001985311974, 0.0004581489484, -0.0006108652451, 0.0007635815418, 0.0007635815418, 0.003359758761, -0.0001527163113, -0.00244346098, -0.004886921961]"
