"Time (s)","Gyroscope x (rad/s)","Gyroscope y (rad/s)","Gyroscope z (rad/s)"
3.667613800E-2,-6.229298115E-1,-7.722864151E-1,-7.024950348E-3
4.667613800E-2,-8.376489878E-1,-8.990409374E-1,1.049161032E-1
5.667613800E-2,-1.005636930E0,-1.018159628E0,2.498438805E-1
6.667613800E-2,-1.112232924E0,-1.152702689E0,4.019493461E-1
7.667613800E-2,-1.179733515E0,-1.249830246E0,5.308418870E-1
8.667613800E-2,-1.260062337E0,-1.306488037E0,6.577491760E-1
9.667613800E-2,-1.304197311E0,-1.317330956E0,7.467827797E-1
1.066761380E-1,-1.248303175E0,-1.254411817E0,7.996225953E-1
1.166761380E-1,-1.184925914E0,-1.210887671E0,7.924449444E-1
1.266761380E-1,-1.058171272E0,-1.133307695E0,7.608326674E-1
1.366761380E-1,-9.401215911E-1,-1.034805775E0,7.159340382E-1
1.466761380E-1,-7.869471312E-1,-8.895725012E-1,6.945537925E-1
1.566761380E-1,-6.307183504E-1,-8.084801435E-1,7.411322594E-1
1.666761380E-1,-6.206390858E-1,-8.225300312E-1,8.666650653E-1
1.766761380E-1,-7.348709106E-1,-8.075638413E-1,1.039081812E0
1.866761380E-1,-8.862127662E-1,-7.767151594E-1,1.139721870E0
1.966761380E-1,-1.054047942E0,-6.925684810E-1,1.116050839E0
2.066761380E-1,-1.169501543E0,-5.842925906E-1,1.031293273E0
2.166761380E-1,-1.220661521E0,-5.154175758E-1,8.962920308E-1
2.266761380E-1,-1.195921421E0,-5.389358401E-1,7.507534027E-1
2.366761380E-1,-1.123075724E0,-5.934556127E-1,5.587889552E-1
2.466761380E-1,-1.086576581E0,-6.811147332E-1,3.213151097E-1
2.566761380E-1,-1.097113967E0,-7.414376736E-1,1.269072592E-1
2.666761380E-1,-1.044121385E0,-6.652322412E-1,-3.390302137E-2
2.766761380E-1,-8.515461683E-1,-6.383541822E-1,-6.704246253E-2
2.866761380E-1,-6.046038866E-1,-6.650795341E-1,-7.727445662E-2
2.966761380E-1,-4.057672322E-1,-5.462662578E-1,-8.567385375E-2
3.066761380E-1,-1.629483104E-1,-2.835941911E-1,-9.560041130E-2
3.166761380E-1,4.917465150E-2,-3.222314268E-2,-1.214094684E-1
3.266761380E-1,1.609629989E-1,1.760819107E-1,-1.156062484E-1
3.366761380E-1,1.821905524E-1,2.643519342E-1,-5.787948146E-2
3.466761380E-1,1.661553532E-1,2.759583890E-1,2.519819140E-2
3.566761380E-1,1.067487001E-1,2.075414658E-1,6.765332818E-2
3.666761380E-1,5.955935922E-3,1.070541367E-1,8.811730891E-2
3.766761380E-1,-7.299839705E-2,3.268129006E-2,9.392052889E-2
3.866761380E-1,-1.177442744E-1,-2.794708498E-2,7.910704613E-2
3.966761380E-1,-1.492038369E-1,-8.078692853E-2,5.803219974E-2
4.066761380E-1,-1.366810948E-1,-9.773843735E-2,3.848451003E-2
4.166761380E-1,-1.146899462E-1,-9.483683109E-2,1.404990070E-2
4.266761380E-1,-1.036943719E-1,-9.346238524E-2,4.276056774E-3
4.366761380E-1,-2.733621933E-2,2.901609987E-3,8.246680722E-3
4.466761380E-1,2.805398703E-1,1.354593635E-1,-6.108652428E-2
4.566761380E-1,2.545780838E-1,4.688390717E-2,-5.299255997E-2
4.666761380E-1,3.543018550E-2,-9.773843922E-3,-1.267545391E-2
4.766761380E-1,-8.704829961E-2,-3.084869497E-2,2.168571576E-2
4.866761380E-1,-2.064724565E-1,-1.120937690E-1,5.314527452E-2
4.966761380E-1,-2.868012190E-1,-1.768454909E-1,7.605272532E-2
5.066761380E-1,-2.535090744E-1,-1.908953935E-1,2.596177347E-2
5.166761380E-1,-1.067487001E-1,-1.485929638E-1,-5.803219974E-3
5.266761380E-1,6.627888232E-2,-1.679879427E-2,1.832595794E-3
5.366761380E-1,1.473712474E-1,8.338310570E-2,1.328631863E-2
5.466761380E-1,1.440114826E-1,5.894849449E-2,-1.130100712E-2
5.566761380E-1,1.114829108E-1,-1.007927675E-2,-1.771509275E-2
5.666761380E-1,6.765332818E-2,-3.619376570E-2,-2.748893574E-2
5.766761380E-1,6.719517522E-3,-7.742717117E-2,-2.641992271E-2
5.866761380E-1,-4.199698567E-2,-1.110247597E-1,-2.657263726E-2
5.966761380E-1,1.450804994E-2,-1.250746548E-1,-4.627304152E-2
6.066761380E-1,1.382082552E-1,-9.285151958E-2,-7.315111160E-2
6.166761380E-1,3.149010241E-1,2.458732575E-2,-1.154535338E-1
6.266761380E-1,4.483750761E-1,1.660026312E-1,-1.540907621E-1
6.366761380E-1,5.097670555E-1,2.748893499E-1,-1.913535446E-1
6.466761380E-1,5.372560024E-1,3.426954150E-1,-2.130392492E-1
6.566761380E-1,5.728389025E-1,4.682282209E-1,-2.441933751E-1
6.666761380E-1,6.192646623E-1,6.001750827E-1,-2.680171132E-1
6.766761380E-1,6.391177773E-1,6.812674403E-1,-2.724458873E-1
6.866761380E-1,6.085745096E-1,6.747006774E-1,-2.614503205E-1
6.966761380E-1,5.589417219E-1,6.102544069E-1,-2.214386463E-1
7.066761380E-1,4.941899776E-1,5.845980644E-1,-1.592831165E-1
7.166761380E-1,4.418082833E-1,5.568036437E-1,-1.043052375E-1
7.266761380E-1,3.811798990E-1,4.848742783E-1,-6.795875728E-2
7.366761380E-1,3.472768962E-1,4.389066696E-1,-4.138612002E-2
7.466761380E-1,3.135266006E-1,3.868304193E-1,-1.221730490E-3
7.566761380E-1,2.700024247E-1,3.284927905E-1,3.023782931E-2
7.666761380E-1,2.139555514E-1,2.823724449E-1,6.307183951E-2
7.766761380E-1,1.556179225E-1,2.399173230E-1,9.468411654E-2
7.866761380E-1,7.177666575E-2,1.492038369E-1,1.273654103E-1
7.966761380E-1,-1.160643995E-2,3.436116874E-2,1.340849251E-1
8.066761380E-1,-9.071348608E-2,-3.390302137E-2,1.131627858E-1
8.166761380E-1,-1.354593635E-1,-9.285151958E-2,4.948008433E-2
8.266761380E-1,-1.435533315E-1,-1.514945775E-1,3.970623948E-3
8.366761380E-1,-1.333213449E-1,-1.893682331E-1,-1.069014193E-3
8.466761380E-1,-3.344487399E-2,-1.062905490E-1,1.130100712E-2
8.566761380E-1,-2.687807009E-2,-1.452332139E-1,-1.817324013E-2
8.666761380E-1,-5.589416996E-2,-1.970040351E-1,-1.954768784E-2
8.766761380E-1,-1.130100712E-1,-2.481640130E-1,1.924225502E-2
8.866761380E-1,-1.631010175E-1,-2.635883391E-1,5.589416996E-2
8.966761380E-1,-1.803579628E-1,-2.588541508E-1,5.345070735E-2
9.066761380E-1,-1.644754708E-1,-2.513710558E-1,3.772092983E-2
9.166761380E-1,-1.363756657E-1,-2.411390543E-1,3.283400834E-2
9.266761380E-1,-8.277224004E-2,-2.000583708E-1,2.306016348E-2
9.366761380E-1,-1.679879380E-3,-9.728029370E-2,6.414085161E-3
9.466761380E-1,6.826419383E-2,2.000583708E-2,-5.192354787E-3
9.566761380E-1,1.043052375E-1,9.147707373E-2,-6.108652335E-3
9.666761380E-1,1.148426682E-1,1.443169117E-1,8.704829961E-3
9.766761380E-1,8.918632567E-2,1.279762685E-1,1.603521220E-2
9.866761380E-1,4.214970022E-2,5.283984542E-2,4.734205548E-3
9.966761380E-1,2.153299935E-2,2.809980139E-2,-8.857546374E-3
1.006676138E0,3.359758761E-3,-5.039638374E-3,-3.451388702E-2
1.016676138E0,-2.336559631E-2,-3.207042441E-2,-7.009678334E-2
1.026676138E0,-1.970040426E-2,-2.229658142E-2,-6.765332818E-2
1.036676138E0,-7.635815535E-3,-8.704829961E-3,-5.894849449E-2
1.046676138E0,2.840523422E-2,7.498370856E-2,-5.619960278E-2
1.056676138E0,6.505715102E-2,8.155050874E-2,-5.742133409E-2
1.066676138E0,-1.603521220E-2,-1.282817032E-2,4.428773187E-3
1.076676138E0,-1.169806942E-1,-1.088867337E-1,8.475755155E-2
1.086676138E0,-1.437060535E-1,-1.288925707E-1,1.224784851E-1
1.096676138E0,-1.264491081E-1,-1.310305893E-1,1.029307917E-1
1.106676138E0,-8.857546002E-2,-1.218676195E-1,5.650503561E-2
1.116676138E0,-4.489859566E-2,-7.452555746E-2,2.611448988E-2
1.126676138E0,-6.108652335E-3,-2.977968007E-2,-6.566801574E-3
1.136676138E0,1.695151068E-2,-9.773843922E-3,-3.222314268E-2
1.146676138E0,2.901609987E-2,9.926560335E-3,-4.428773001E-2
1.156676138E0,4.123340547E-2,2.107485011E-2,-3.084869497E-2
1.166676138E0,4.505131021E-2,1.252273750E-2,-1.985312067E-2
1.176676138E0,3.405573592E-2,2.596177394E-3,-2.229658142E-2
1.186676138E0,1.450804994E-2,-1.374446787E-3,-2.718350291E-2
1.196676138E0,-7.483099122E-3,-1.252273750E-2,-3.695734590E-2
1.206676138E0,-3.558290005E-2,-3.375030309E-2,-3.466660157E-2
1.216676138E0,-4.520402849E-2,-4.489859566E-2,-2.977968007E-2
1.226676138E0,-4.886921868E-2,-5.100724846E-2,-2.244929783E-2
1.236676138E0,-2.443460934E-2,-4.108068720E-2,-9.010262787E-3
1.246676138E0,2.901609987E-2,1.099557430E-2,-2.748893574E-3
1.256676138E0,8.827003092E-2,1.059851199E-1,-1.221730490E-3
1.266676138E0,1.072068512E-1,1.601994038E-1,-2.138028387E-3
1.276676138E0,9.605856240E-2,1.711949855E-1,-8.093964309E-3
1.286676138E0,4.948008433E-2,1.644754708E-1,-1.175915636E-2
1.296676138E0,1.908953860E-2,1.432479024E-1,-6.872233935E-3
1.306676138E0,1.420261711E-2,1.322523206E-1,-1.069014147E-2
1.316676138E0,2.672535367E-2,1.116356254E-1,-1.572977938E-2
1.326676138E0,3.695734590E-2,7.620543987E-2,-1.832595654E-2
1.336676138E0,4.108068720E-2,2.947424725E-2,-7.635815535E-3
1.346676138E0,6.337726861E-2,2.229658142E-2,1.679879427E-2
1.356676138E0,8.872817457E-2,6.169738993E-2,2.306016348E-2
1.366676138E0,1.324050426E-1,1.053742543E-1,-6.108652335E-3
1.376676138E0,1.443169117E-1,1.078177169E-1,-2.962696366E-2
1.386676138E0,1.513418704E-1,1.348485053E-1,-2.458732575E-2
1.396676138E0,1.547016203E-1,1.705841124E-1,-2.809980139E-2
1.406676138E0,1.580613852E-1,2.014328092E-1,-6.093380973E-2
1.416676138E0,1.748601794E-1,2.336559594E-1,-8.521570265E-2
1.426676138E0,2.452623993E-1,3.006984293E-1,-1.130100712E-1
1.436676138E0,1.779145002E-1,1.711949855E-1,-9.407325089E-2
1.446676138E0,-4.703662544E-2,-1.572977938E-2,-1.160643995E-2
1.456676138E0,-2.292271852E-1,-8.689557761E-2,7.864890248E-2
1.466676138E0,-2.977968156E-1,-1.072068512E-1,6.887505949E-2
1.476676138E0,-2.325869352E-1,-1.145372316E-1,-3.023782931E-2
1.486676138E0,-1.055269688E-1,-5.772676691E-2,-7.773260027E-2
1.496676138E0,3.222314268E-2,2.596177347E-2,-7.254024595E-2
1.506676138E0,4.718934000E-2,2.596177394E-3,-3.619376570E-2
1.516676138E0,-4.260785133E-2,-9.071348608E-2,2.703078650E-2
1.526676138E0,-1.401935667E-1,-1.435533315E-1,8.674286306E-2
1.536676138E0,-2.244929820E-1,-1.742493063E-1,1.525636017E-1
1.546676138E0,-2.402227521E-1,-1.954768747E-1,1.806633919E-1
1.556676138E0,-2.411390543E-1,-2.186897546E-1,1.805106848E-1
1.566676138E0,-2.776382565E-1,-2.486221492E-1,1.754710376E-1
1.576676138E0,-3.411682248E-1,-2.823724449E-1,1.840231568E-1
1.586676138E0,-4.060726762E-1,-2.953533530E-1,1.889100820E-1
1.596676138E0,-4.178318381E-1,-2.377792895E-1,1.598939747E-1
1.606676138E0,-3.933972120E-1,-2.180788964E-1,1.808161139E-1
1.616676138E0,-3.400992155E-1,-1.511891484E-1,1.748601794E-1
1.626676138E0,-2.538145185E-1,-7.788532227E-2,1.715004146E-1
1.636676138E0,-1.783726513E-1,-1.572977938E-2,1.618792862E-1
1.646676138E0,-1.453859210E-1,-5.497787148E-3,1.472185254E-1
1.656676138E0,-1.653917581E-1,-7.315111160E-2,1.627955884E-1
1.666676138E0,-2.367102802E-1,-1.771509200E-1,1.953241676E-1
1.676676138E0,-3.110831380E-1,-2.307543457E-1,2.159408629E-1
1.686676138E0,-3.610213697E-1,-2.570215464E-1,2.159408629E-1
1.696676138E0,-3.634648323E-1,-2.594650090E-1,2.086104751E-1
1.706676138E0,-3.378084898E-1,-2.518292069E-1,2.098322064E-1
1.716676138E0,-2.796235681E-1,-1.898263693E-1,1.904372424E-1
1.726676138E0,-1.994474977E-1,-1.029307917E-1,1.554652005E-1
1.736676138E0,-1.363756657E-1,-3.817907721E-2,1.104138941E-1
1.746676138E0,-9.743300825E-2,-8.246680722E-3,8.002334833E-2
1.756676138E0,-5.253441259E-2,3.161227703E-2,5.696318299E-2
1.766676138E0,-7.177666761E-3,4.810563847E-2,4.718934000E-2
1.776676138E0,4.306599870E-2,4.749477282E-2,4.474587739E-2
1.786676138E0,7.147123665E-2,3.313944116E-2,4.581489414E-2
1.796676138E0,8.155050874E-2,1.970040426E-2,5.299255997E-2
1.806676138E0,7.299839705E-2,7.330383174E-3,5.421429127E-2
1.816676138E0,1.679879427E-2,-1.893682219E-2,4.688390717E-2
1.826676138E0,-3.940080851E-2,-3.436116874E-2,4.688390717E-2
1.836676138E0,-6.291911751E-2,-2.840523422E-2,3.344487399E-2
1.846676138E0,-5.574145541E-2,-6.108652335E-3,1.771509275E-2
1.856676138E0,-3.359758761E-3,3.497203439E-2,-1.679879380E-3
1.866676138E0,7.834346592E-2,8.261952549E-2,-2.351831272E-2
1.876676138E0,1.392772794E-1,1.165225431E-1,-3.695734590E-2
1.886676138E0,1.747074574E-1,1.365283877E-1,-4.413501546E-2
1.896676138E0,1.452332139E-1,1.386664063E-1,-4.169155285E-2
1.906676138E0,7.070764899E-2,1.070541367E-1,-2.703078650E-2
1.916676138E0,9.773843922E-3,6.459899992E-2,-5.192354787E-3
1.926676138E0,-1.069014147E-2,2.748893574E-2,7.635815418E-4
1.936676138E0,-1.069014147E-2,2.748893574E-2,7.635815418E-4
1.946676138E0,-1.069014147E-2,2.748893574E-2,7.635815418E-4
1.956676138E0,-1.069014147E-2,2.748893574E-2,7.635815418E-4
1.966676138E0,-1.069014147E-2,2.748893574E-2,7.635815418E-4
1.976676138E0,-1.069014147E-2,2.748893574E-2,7.635815418E-4
1.986676138E0,-1.069014147E-2,2.748893574E-2,7.635815418E-4
1.996676138E0,-1.069014147E-2,2.748893574E-2,7.635815418E-4
2.055651483E0,-5.856670737E-1,-6.091853380E-1,4.352414981E-2
2.065651483E0,-6.013968587E-1,-6.351471543E-1,5.192354694E-2
2.075651483E0,-5.972734690E-1,-6.719517708E-1,5.894849449E-2
2.085651483E0,-5.638286471E-1,-7.082982659E-1,4.780020565E-2
2.095651483E0,-5.326744914E-1,-7.458664775E-1,1.817324013E-2
2.105651483E0,-5.174028873E-1,-8.055785298E-1,-7.788531948E-3
2.115651483E0,-5.245805383E-1,-8.167268038E-1,7.635815418E-4
2.125651483E0,-5.135849714E-1,-8.032878041E-1,2.641992271E-2
2.135651483E0,-5.122104883E-1,-8.168795705E-1,5.803219974E-2
2.145651483E0,-5.152648091E-1,-7.644978762E-1,9.987647086E-2
2.155651483E0,-5.268712640E-1,-7.121161819E-1,1.343903542E-1
2.165651483E0,-5.601634383E-1,-6.965391040E-1,1.504255682E-1
2.175651483E0,-6.287330389E-1,-7.170031071E-1,1.443169117E-1
2.185651483E0,-7.076873779E-1,-7.864890099E-1,1.586722434E-1
2.195651483E0,-8.104654551E-1,-9.315695167E-1,2.399173230E-1
2.205651483E0,-8.758280277E-1,-1.013883591E0,3.652974069E-1
2.215651483E0,-8.930850029E-1,-9.999864101E-1,4.605923891E-1
2.225651483E0,-8.877398968E-1,-9.190467596E-1,4.732678533E-1
2.235651483E0,-8.579602242E-1,-8.400924206E-1,4.602869749E-1
2.245651483E0,-8.144360781E-1,-7.757988572E-1,4.408919811E-1
2.255651483E0,-8.200865984E-1,-7.130324841E-1,3.961461186E-1
2.265651483E0,-8.668177724E-1,-7.121161819E-1,3.559817076E-1
2.275651483E0,-9.285151958E-1,-6.834055185E-1,3.549126983E-1
2.285651483E0,-9.443976879E-1,-6.899722815E-1,3.976732790E-1
2.295651483E0,-9.445503950E-1,-6.753115058E-1,4.123340547E-1
2.305651483E0,-8.350527883E-1,-5.849034786E-1,4.468479156E-1
2.315651483E0,-7.223481536E-1,-5.592471361E-1,4.725042582E-1
2.325651483E0,-6.085745096E-1,-5.126686692E-1,4.737260044E-1
2.335651483E0,-5.239696503E-1,-4.983133376E-1,4.932736754E-1
2.345651483E0,-4.944954216E-1,-4.980078936E-1,5.041165352E-1
2.355651483E0,-4.932736754E-1,-5.100724697E-1,4.821254015E-1
2.365651483E0,-5.600107312E-1,-4.653266072E-1,4.604396820E-1
2.375651483E0,-6.565274000E-1,-4.013384581E-1,4.305072725E-1
2.385651483E0,-7.185302377E-1,-3.477350473E-1,3.723223805E-1
2.395651483E0,-7.313584089E-1,-2.973386645E-1,3.176499307E-1
2.405651483E0,-7.133378983E-1,-2.687807083E-1,2.860376537E-1
2.415651483E0,-6.786713004E-1,-2.976440787E-1,2.700024247E-1
2.425651483E0,-6.200281978E-1,-3.781255782E-1,2.901609838E-1
2.435651483E0,-5.832235813E-1,-4.917465150E-1,3.028364480E-1
2.445651483E0,-5.748242140E-1,-5.752823353E-1,3.475823104E-1
2.455651483E0,-6.024658680E-1,-6.226243973E-1,4.303545654E-1
2.465651483E0,-6.407976151E-1,-5.991060734E-1,5.355761051E-1
2.475651483E0,-6.331618428E-1,-5.099197626E-1,6.068946123E-1
2.485651483E0,-5.827654600E-1,-3.904955983E-1,6.146831512E-1
2.495651483E0,-4.828889668E-1,-2.163990140E-1,5.826127529E-1
2.505651483E0,-3.744603992E-1,-1.356120855E-1,6.096435189E-1
2.515651483E0,-2.945897579E-1,-1.603521220E-2,6.491970420E-1
2.525651483E0,-2.446515262E-1,1.302670091E-1,6.743952036E-1
2.535651483E0,-2.328923792E-1,1.792889535E-1,6.916521788E-1
2.545651483E0,-2.270891517E-1,2.015855312E-1,6.734789610E-1
2.555651483E0,-2.183843255E-1,1.934915632E-1,6.026185751E-1
2.565651483E0,-2.319760770E-1,1.950187236E-1,5.160284042E-1
2.575651483E0,-2.643519342E-1,2.368630022E-1,4.344778955E-1
2.585651483E0,-3.304781020E-1,3.237585723E-1,3.385720551E-1
2.595651483E0,-3.575088978E-1,4.271475375E-1,1.890627891E-1
2.605651483E0,-3.145956099E-1,4.224133193E-1,2.901609987E-2
2.615651483E0,-2.144137025E-1,2.359467000E-1,-1.797471046E-1
2.625651483E0,-9.453139454E-2,4.444044828E-2,-3.335324228E-1
2.635651483E0,4.276056774E-3,-1.412625909E-1,-4.665483236E-1
2.645651483E0,5.390885845E-2,-1.860084683E-1,-4.949535728E-1
2.655651483E0,-1.279762685E-1,5.574145541E-2,-4.531092942E-1
2.665651483E0,-4.500549734E-1,9.957103431E-2,-3.900374472E-1
2.675651483E0,-4.958698750E-1,3.222314268E-2,-2.547308207E-1
2.685651483E0,-5.027421117E-1,-9.773843922E-3,-2.269364446E-1
2.695651483E0,-4.743368626E-1,-3.069597855E-2,-1.611157060E-1
2.705651483E0,-4.728097022E-1,-5.054909736E-2,-1.075122803E-1
2.715651483E0,-4.845688641E-1,-9.407325089E-2,-3.084869497E-2
2.725651483E0,-4.819726646E-1,-2.206750661E-1,4.413501546E-2
2.735651483E0,-4.416555762E-1,-4.120286107E-1,1.357648075E-1
2.745651483E0,-3.970624208E-1,-4.578435123E-1,9.773843735E-2
2.755651483E0,-3.744603992E-1,-5.015203953E-1,4.978551716E-2
2.765651483E0,-3.287982047E-1,-6.397286057E-1,7.223481685E-2
2.775651483E0,-2.669481039E-1,-6.855435371E-1,6.322455406E-2
2.785651483E0,-2.073887438E-1,-6.354525685E-1,-6.108652335E-3
2.795651483E0,-1.617265791E-1,-6.566801667E-1,-6.612616032E-2
2.805651483E0,-9.529497474E-2,-7.832819819E-1,-9.743300825E-2
2.815651483E0,-2.015855350E-2,-9.135489464E-1,-9.101892263E-2
2.825651483E0,3.145955876E-2,-9.205739498E-1,-7.162395120E-2
2.835651483E0,1.359175146E-2,-8.521569967E-1,-6.383541971E-2
2.845651483E0,-4.810563847E-2,-8.306240439E-1,-7.223481685E-2
2.855651483E0,-9.911288321E-2,-8.811731339E-1,-1.430951804E-1
2.865651483E0,-1.713477075E-1,-9.025533795E-1,-1.821905524E-1
2.875651483E0,-2.026545405E-1,-9.630290866E-1,-1.702786833E-1
2.885651483E0,-2.006692290E-1,-1.030529618E0,-1.583668143E-1
2.895651483E0,-1.730275750E-1,-1.083980322E0,-1.820378453E-1
2.905651483E0,-1.400408596E-1,-9.619600177E-1,-2.423607856E-1
2.915651483E0,-1.340849251E-1,-8.400924206E-1,-3.028364480E-1
2.925651483E0,-1.505782902E-1,-7.910705209E-1,-3.489567637E-1
2.935651483E0,-1.001819000E-1,-5.751296282E-1,-4.992296100E-1
2.945651483E0,-1.317941695E-1,-5.051855445E-1,-5.696318150E-1
2.955651483E0,-1.912008226E-1,-4.604396820E-1,-5.583308339E-1
2.965651483E0,-2.347249687E-1,-5.128213763E-1,-4.925101101E-1
2.975651483E0,-2.469422817E-1,-6.261368990E-1,-4.185954034E-1
2.985651483E0,-2.295326144E-1,-7.551821470E-1,-3.278819323E-1
2.995651483E0,-1.882992089E-1,-8.187121153E-1,-2.904664278E-1
3.005651483E0,-1.530217379E-1,-7.864890099E-1,-2.939788997E-1
3.015651483E0,-1.466076523E-1,-7.029531598E-1,-3.118467033E-1
3.025651483E0,-1.715004146E-1,-5.693264008E-1,-3.550654352E-1
3.035651483E0,-2.028072625E-1,-3.941608071E-1,-3.992004395E-1
3.045651483E0,-2.156354338E-1,-2.310597748E-1,-4.166100919E-1
3.055651483E0,-2.165517360E-1,-1.417207420E-1,-3.831652105E-1
3.065651483E0,-2.206750661E-1,-1.104138941E-1,-3.145956099E-1
3.075651483E0,-2.292271852E-1,-1.000291854E-1,-2.156354338E-1
3.085651483E0,-1.936442852E-1,-8.903361112E-2,-1.278235465E-1
3.095651483E0,-1.243110746E-1,-1.437060535E-1,-8.674286306E-2
3.105651483E0,-7.070764899E-2,-2.252565622E-1,-8.109235764E-2
3.115651483E0,-2.916881628E-2,-3.191770911E-1,-9.147707373E-2
3.125651483E0,-2.443460980E-3,-3.947716653E-1,-1.053742543E-1
3.135651483E0,3.130684420E-2,-4.506658316E-1,-1.203404516E-1
3.145651483E0,5.849034712E-2,-4.662429094E-1,-1.314887404E-1
3.155651483E0,7.391469181E-2,-4.231768847E-1,-1.287398487E-1
3.165651483E0,7.910704613E-2,-3.385720551E-1,-1.113301888E-1
3.175651483E0,6.230825558E-2,-2.593123019E-1,-8.399397135E-2
3.185651483E0,4.535674304E-2,-1.652390510E-1,-5.039638281E-2
3.195651483E0,3.588833287E-2,-8.216137439E-2,-3.161227703E-2
3.205651483E0,3.711006418E-2,3.420845419E-2,-4.276056774E-3
3.215651483E0,3.512475267E-2,1.123992056E-1,4.260785133E-2
3.225651483E0,3.588833287E-2,1.463022232E-1,1.185078546E-1
3.235651483E0,5.681046844E-2,1.534798890E-1,1.808161139E-1
3.245651483E0,1.107193232E-1,1.661553532E-1,2.331978083E-1
3.255651483E0,1.747074574E-1,1.508837193E-1,2.452623993E-1
3.265651483E0,2.364048511E-1,1.209513173E-1,2.327396572E-1
3.275651483E0,2.761110961E-1,8.597928286E-2,2.105957866E-1
3.285651483E0,2.811507285E-1,7.376197726E-2,1.982257664E-1
3.295651483E0,2.544253767E-1,5.268712714E-2,1.982257664E-1
3.305651483E0,2.046398520E-1,-7.635815418E-4,2.199114859E-1
3.315651483E0,1.539380401E-1,-7.987063378E-2,2.489275932E-1
3.325651483E0,1.253800988E-1,-1.637118906E-1,2.692388594E-1
3.335651483E0,9.101892263E-2,-2.758056521E-1,2.809980214E-1
3.345651483E0,5.314527452E-2,-3.005456924E-1,2.515237629E-1
3.355651483E0,7.330383174E-3,-2.724458873E-1,1.748601794E-1
3.365651483E0,-2.871066704E-2,-2.244929820E-1,9.834930301E-2
3.375651483E0,-3.191770986E-2,-1.594358236E-1,6.444628537E-2
3.385651483E0,1.374446787E-3,-6.093380973E-2,6.490442902E-2
3.395651483E0,7.635815442E-2,4.398229718E-2,8.491026610E-2
3.405651483E0,1.731802970E-1,1.710422635E-1,1.207986027E-1
3.415651483E0,2.542726696E-1,2.822197378E-1,1.505782902E-1
3.425651483E0,3.448334336E-1,4.276056588E-1,1.853975952E-1
3.435651483E0,4.068362415E-1,4.833471179E-1,2.185370475E-1
3.445651483E0,4.381431043E-1,4.308127165E-1,2.487748712E-1
3.455651483E0,4.512766898E-1,3.584251702E-1,2.703078687E-1
3.465651483E0,4.393648207E-1,2.086104751E-1,2.964223623E-1
3.475651483E0,4.050036669E-1,8.689557761E-2,3.019201458E-1
3.485651483E0,3.558290005E-1,-1.908953860E-2,2.977968156E-1
3.495651483E0,2.780964077E-1,-9.468411654E-2,2.950479090E-1
3.505651483E0,2.086104751E-1,-1.458440721E-1,2.936734557E-1
3.515651483E0,1.266018152E-1,-1.576032341E-1,2.777909636E-1
3.525651483E0,7.574728876E-2,-1.151480973E-1,2.513710558E-1
3.535651483E0,5.986479297E-2,-1.221730467E-2,2.249511331E-1
3.545651483E0,5.619960278E-2,1.006400511E-1,2.133446932E-1
3.555651483E0,4.276056588E-2,2.021963894E-1,2.102903575E-1
3.565651483E0,1.802052557E-2,2.240348309E-1,2.153300047E-1
3.575651483E0,7.330383174E-3,1.896736622E-1,2.115120888E-1
3.585651483E0,6.414085161E-3,1.638645977E-1,2.015855312E-1
3.595651483E0,1.023199316E-2,1.528690308E-1,1.979203373E-1
3.605651483E0,8.093964309E-3,1.185078546E-1,1.977676302E-1
3.615651483E0,8.246680722E-3,9.773843735E-2,1.927279830E-1
3.625651483E0,4.230241850E-2,1.250746548E-1,1.916589737E-1
3.635651483E0,8.124507964E-2,1.660026312E-1,2.040289938E-1
3.645651483E0,1.212567538E-1,2.067778856E-1,2.223549485E-1
3.655651483E0,1.237002090E-1,2.115120888E-1,2.455678284E-1
3.665651483E0,8.933904022E-2,2.196060568E-1,2.664899528E-1
3.675651483E0,4.749477282E-2,2.289217561E-1,2.727513313E-1
3.685651483E0,-6.108652451E-4,2.406809032E-1,2.631302178E-1
3.695651483E0,-2.626720630E-2,2.380847335E-1,2.472477108E-1
3.705651483E0,-3.588833287E-2,2.110539377E-1,2.287690341E-1
3.715651483E0,-2.168571576E-2,1.438587606E-1,2.101376504E-1
3.725651483E0,1.069014147E-2,9.773843735E-2,2.000583708E-1
3.735651483E0,5.803219974E-2,4.184427112E-2,2.105957866E-1
3.745651483E0,1.026253626E-1,1.282817032E-2,2.251038402E-1
3.755651483E0,1.175915599E-1,-1.023199316E-2,2.249511331E-1
3.765651483E0,1.091921628E-1,-2.993239649E-2,2.174680233E-1
3.775651483E0,7.742717117E-2,-4.627304152E-2,2.150245607E-1
3.785651483E0,3.711006418E-2,-6.505715102E-2,2.150245607E-1
3.795651483E0,6.719517522E-3,-9.239336848E-2,2.038762718E-1
3.805651483E0,-2.748893574E-3,-1.302670091E-1,1.756237596E-1
3.815651483E0,2.443460980E-3,-1.534798890E-1,1.547016203E-1
3.825651483E0,1.527163084E-3,-1.815796942E-1,1.388191283E-1
3.835651483E0,-2.015855350E-2,-2.258674204E-1,1.226311997E-1
3.845651483E0,-4.795292020E-2,-2.664899528E-1,1.090394482E-1
3.855651483E0,-7.452555746E-2,-3.121521473E-1,9.666942805E-2
3.865651483E0,-1.070541367E-1,-3.723223805E-1,6.948592514E-2
3.875651483E0,-1.336267740E-1,-4.141666293E-1,3.268129006E-2
3.885651483E0,-1.395827085E-1,-4.225660264E-1,3.359758761E-3
3.895651483E0,-1.348485053E-1,-4.077525437E-1,-7.483099122E-3
3.905651483E0,-1.032362282E-1,-3.901901841E-1,-2.947424725E-2
3.915651483E0,-4.596760869E-2,-3.514002264E-1,-6.108652428E-2
3.925651483E0,3.207042441E-2,-3.025310040E-1,-8.903361112E-2
3.935651483E0,9.147707373E-2,-2.283108830E-1,-9.361509979E-2
3.945651483E0,9.697485715E-2,-1.656972021E-1,-8.842274547E-2
3.955651483E0,1.924225502E-2,-1.359175146E-1,-7.590000331E-2
3.965651483E0,-1.434006095E-1,-1.966986060E-1,-7.712173462E-2
3.975651483E0,-3.083342314E-1,-2.657263875E-1,-1.017090604E-1
3.985651483E0,-3.903428912E-1,-2.922990322E-1,-1.346957833E-1
3.995651483E0,-4.091269970E-1,-2.616030276E-1,-1.795943826E-1
4.005651483E0,-3.727805018E-1,-2.278527319E-1,-2.209804952E-1
4.015651483E0,-3.249803185E-1,-2.160935849E-1,-2.515237629E-1
4.025651483E0,-2.895501256E-1,-2.044871449E-1,-2.722931802E-1
4.035651483E0,-2.690861523E-1,-1.612684280E-1,-2.929098904E-1
4.045651483E0,-2.590068579E-1,-8.261952549E-2,-3.119994104E-1
4.055651483E0,-2.527455091E-1,1.679879427E-2,-3.174972236E-1
4.065651483E0,-2.257147133E-1,1.287398487E-1,-3.219259977E-1
4.075651483E0,-1.736384481E-1,1.979203373E-1,-3.179553747E-1
4.085651483E0,-7.467827946E-2,2.406809032E-1,-3.069597781E-1
4.095651483E0,3.466660157E-2,2.344195396E-1,-2.961169183E-1
4.105651483E0,1.154535338E-1,1.568396538E-1,-2.942843437E-1
4.115651483E0,1.435533315E-1,5.665775016E-2,-2.971859276E-1
4.125651483E0,1.340849251E-1,-1.027780771E-1,-2.993239760E-1
4.135651483E0,9.544769675E-2,-2.700024247E-1,-3.074179292E-1
4.145651483E0,5.009094998E-2,-3.868304193E-1,-3.190243840E-1
4.155651483E0,-9.162978968E-4,-4.389066696E-1,-3.313944042E-1
4.165651483E0,-5.253441259E-2,-4.344778955E-1,-3.349068761E-1
4.175651483E0,-1.206458881E-1,-3.813326359E-1,-3.358231783E-1
4.185651483E0,-1.928807050E-1,-2.864958048E-1,-3.352122903E-1
4.195651483E0,-2.521346211E-1,-1.547016203E-1,-3.416263759E-1
4.205651483E0,-2.912299931E-1,-5.696318299E-2,-3.471241891E-1
4.215651483E0,-3.054326177E-1,1.756237634E-2,-3.480404615E-1
4.225651483E0,-2.703078687E-1,4.993823543E-2,-3.503312171E-1
4.235651483E0,-1.769981980E-1,5.345070735E-2,-3.517056704E-1
4.245651483E0,-4.214970022E-2,7.696902007E-2,-3.455969989E-1
4.255651483E0,5.955936015E-2,9.147707373E-2,-3.433062732E-1
4.265651483E0,1.333213449E-1,8.261952549E-2,-3.459024429E-1
4.275651483E0,1.287398487E-1,5.558873713E-2,-3.472768962E-1
4.285651483E0,7.116580009E-2,4.016438872E-2,-3.448334336E-1
4.295651483E0,6.108652335E-3,4.062253982E-2,-3.446807265E-1
4.305651483E0,-6.643159688E-2,5.207626149E-2,-3.420845270E-1
4.315651483E0,-1.157589629E-1,6.505715102E-2,-3.309362531E-1
4.325651483E0,-1.502728462E-1,8.414668590E-2,-3.051272035E-1
4.335651483E0,-1.661553532E-1,8.506298810E-2,-2.819143236E-1
4.345651483E0,-1.710422635E-1,7.131851465E-2,-2.551889420E-1
4.355651483E0,-1.597412676E-1,5.406157300E-2,-2.272418737E-1
4.365651483E0,-1.495092660E-1,2.214386500E-2,-1.931861341E-1
4.375651483E0,-1.395827085E-1,6.261368748E-3,-1.689042449E-1
4.385651483E0,-1.383609772E-1,8.552113548E-3,-1.518000066E-1
4.395651483E0,-1.345430762E-1,-1.221730490E-3,-1.383609772E-1
4.405651483E0,-1.223257631E-1,9.926560335E-3,-1.334740520E-1
4.415651483E0,-9.819658846E-2,4.306599870E-2,-1.137736514E-1
4.425651483E0,-7.269296050E-2,8.246681094E-2,-8.674286306E-2
4.435651483E0,-4.001167417E-2,1.169806942E-1,-4.153883830E-2
4.445651483E0,-5.955935922E-3,1.525636017E-1,1.603521220E-2
4.455651483E0,2.336559631E-2,1.782199293E-1,7.834346592E-2
4.465651483E0,3.924809024E-2,1.817324162E-1,1.345430762E-1
4.475651483E0,2.718350291E-2,1.643227488E-1,1.637118906E-1
4.485651483E0,4.428773187E-3,1.111774743E-1,1.892155111E-1
4.495651483E0,-1.802052557E-2,3.237585723E-2,2.107485086E-1
4.505651483E0,-2.550362423E-2,-6.597344577E-2,2.357939780E-1
4.515651483E0,-5.192354787E-3,-1.259909570E-1,2.660318017E-1
4.525651483E0,4.092797264E-2,-1.808161139E-1,3.132211566E-1
4.535651483E0,8.659014851E-2,-2.014328092E-1,3.594942093E-1
4.545651483E0,1.221730486E-1,-1.988366395E-1,4.033237696E-1
4.555651483E0,1.366810948E-1,-1.718058437E-1,4.352414906E-1
4.565651483E0,1.456913650E-1,-1.007927656E-1,4.624249935E-1
4.575651483E0,1.641700417E-1,1.084285788E-2,4.752531648E-1
4.585651483E0,1.766927689E-1,1.004873365E-1,4.818199575E-1
4.595651483E0,1.530217379E-1,1.235474944E-1,4.844161272E-1
4.605651483E0,9.575312585E-2,9.086620808E-2,4.903720617E-1
4.615651483E0,-1.832595794E-3,2.840523422E-2,5.073235631E-1
4.625651483E0,-8.475755155E-2,-2.046398632E-2,5.328271985E-1
4.635651483E0,-1.333213449E-1,-6.643159688E-2,5.522221923E-1
4.645651483E0,-1.368338168E-1,-8.368854225E-2,5.642867684E-1
4.655651483E0,-1.206458881E-1,-9.712757170E-2,5.862779021E-1
4.665651483E0,-8.155050874E-2,-7.834346592E-2,6.058256030E-1
4.675651483E0,-1.817324013E-2,-3.726277873E-2,6.143777370E-1
4.685651483E0,5.131268129E-2,1.374446787E-3,6.255260110E-1
4.695651483E0,7.941248268E-2,1.511891466E-2,6.389650702E-1
4.705651483E0,8.078692853E-2,1.252273750E-2,6.609562039E-1
4.715651483E0,8.231408894E-2,-1.084285788E-2,6.889032722E-1
4.725651483E0,9.498954564E-2,-5.864306539E-2,7.179193497E-1
4.735651483E0,1.301143020E-1,-1.209513173E-1,7.394523621E-1
4.745651483E0,2.312124968E-1,-1.603521258E-1,7.660250068E-1
4.755651483E0,3.791945875E-1,-1.012509167E-1,7.904596329E-1
4.765651483E0,5.377141237E-1,-5.345070735E-3,8.174903989E-1
4.775651483E0,6.415612102E-1,5.222897977E-2,8.335255980E-1
4.785651483E0,7.037167549E-1,9.560041130E-2,8.495608568E-1
4.795651483E0,6.601926088E-1,3.741549700E-2,8.700248003E-1
4.805651483E0,5.367978215E-1,-1.357648075E-1,9.071348906E-1
4.815651483E0,3.694207668E-1,-3.193297982E-1,9.589056969E-1
4.825651483E0,2.383901626E-1,-4.631885588E-1,9.999864101E-1
4.835651483E0,1.162171140E-1,-6.351471543E-1,1.027322650E0
4.845651483E0,5.177082866E-2,-8.086328506E-1,1.004567862E0
4.855651483E0,5.818491429E-2,-9.430232048E-1,9.451612234E-1
4.865651483E0,1.039998084E-1,-9.839512110E-1,9.045386910E-1
4.875651483E0,1.774563491E-1,-9.596692920E-1,8.729264140E-1
4.885651483E0,2.761110961E-1,-7.880161405E-1,8.407033086E-1
4.895651483E0,4.013384581E-1,-5.510004759E-1,7.990117669E-1
4.905651483E0,4.996877611E-1,-3.376557529E-1,7.681630254E-1
4.915651483E0,5.190827250E-1,-2.112066597E-1,7.640396953E-1
4.925651483E0,4.550946057E-1,-7.956519723E-2,7.794640660E-1
4.935651483E0,3.275764883E-1,9.773843922E-3,7.874053121E-1
4.945651483E0,2.055561543E-1,5.986479297E-2,7.721336484E-1
4.955651483E0,1.256855279E-1,6.520986557E-2,7.539604306E-1
4.965651483E0,7.437284291E-2,3.909537569E-2,7.295258045E-1
4.975651483E0,7.345654815E-2,1.466076635E-2,7.147123218E-1
4.985651483E0,1.082758680E-1,-2.535090782E-2,7.156286240E-1
4.995651483E0,1.479821056E-1,-6.673702598E-2,7.250970602E-1
5.005651483E0,2.073887438E-1,-1.090394482E-1,7.418958545E-1
5.015651483E0,2.741257846E-1,-1.452332139E-1,7.635815740E-1
5.025651483E0,3.321579695E-1,-1.802052408E-1,7.803803682E-1
5.035651483E0,3.836233616E-1,-1.711949855E-1,7.961101532E-1
5.045651483E0,4.164573848E-1,-1.426370293E-1,8.035932183E-1
5.055651483E0,4.260784984E-1,-1.192714423E-1,8.110763431E-1
5.065651483E0,4.050036669E-1,-1.047633886E-1,7.988590002E-1
5.075651483E0,3.572034538E-1,-1.087340117E-1,7.623597980E-1
5.085651483E0,3.179553747E-1,-1.237002090E-1,7.208209634E-1
5.095651483E0,2.974913716E-1,-1.627955884E-1,6.754642725E-1
5.105651483E0,3.016147017E-1,-2.092213482E-1,6.459900141E-1
5.115651483E0,3.304781020E-1,-2.616030276E-1,6.298020482E-1
5.125651483E0,3.688098788E-1,-2.855795026E-1,6.282749176E-1
5.135651483E0,4.114177525E-1,-2.582432926E-1,6.357579827E-1
5.145651483E0,4.514294267E-1,-2.063197345E-1,6.469063163E-1
5.155651483E0,4.534147382E-1,-1.585195363E-1,6.496551633E-1
5.165651483E0,4.065308273E-1,-1.382082552E-1,6.485861540E-1
5.175651483E0,3.462078869E-1,-1.229366288E-1,6.426302195E-1
5.185651483E0,2.591595948E-1,-1.336267740E-1,6.305656433E-1
5.195651483E0,1.953241676E-1,-1.440114826E-1,6.036875844E-1
5.205651483E0,1.766927689E-1,-1.269072592E-1,5.732970238E-1
5.215651483E0,1.924225539E-1,-1.081231460E-1,5.575672388E-1
5.225651483E0,2.302961946E-1,-8.078692853E-2,5.514585972E-1
5.235651483E0,2.628247738E-1,-3.023782931E-2,5.603161454E-1
5.245651483E0,2.796235681E-1,1.038470957E-2,5.836817622E-1
5.255651483E0,2.890919745E-1,4.092797264E-2,6.192646623E-1
5.265651483E0,2.770273983E-1,1.970040426E-2,6.496551633E-1
5.275651483E0,2.058615834E-1,-9.407325089E-2,6.797403097E-1
5.285651483E0,9.208793938E-2,-2.449569702E-1,6.901249886E-1
5.295651483E0,1.802052557E-2,-3.106249869E-1,6.873761415E-1
5.305651483E0,1.985311974E-3,-3.023782969E-1,6.948592067E-1
5.315651483E0,1.740965992E-2,-2.580905557E-1,7.060074806E-1
5.325651483E0,6.078109145E-2,-1.864666194E-1,7.124215961E-1
5.335651483E0,1.594358236E-1,-1.094975919E-1,7.113525867E-1
5.345651483E0,2.690861523E-1,-3.588833287E-2,7.238753438E-1
5.355651483E0,3.570507467E-1,1.267545391E-2,7.470881939E-1
5.365651483E0,4.605923891E-1,9.590584040E-2,7.730499506E-1
5.375651483E0,5.577199459E-1,1.863138974E-1,7.953465581E-1
5.385651483E0,6.378960609E-1,2.690861523E-1,8.298604488E-1
5.395651483E0,6.814202070E-1,3.381139040E-1,8.668177724E-1
5.405651483E0,6.856962442E-1,4.028656185E-1,9.037751555E-1
5.415651483E0,6.342308521E-1,3.935499489E-1,9.257662892E-1
5.425651483E0,5.713117123E-1,3.008511364E-1,9.424123764E-1
5.435651483E0,5.247332454E-1,1.875356287E-1,9.615018964E-1
5.445651483E0,4.995350540E-1,1.893682219E-2,1.003346205E0
5.455651483E0,5.248859525E-1,-1.612684280E-1,1.048702955E0
5.465651483E0,6.029239893E-1,-3.382666409E-1,1.083064079E0
5.475651483E0,6.737843752E-1,-4.135557711E-1,1.100779176E0
5.485651483E0,7.043276429E-1,-4.046982229E-1,1.112996459E0
5.495651483E0,6.924157739E-1,-3.216205537E-1,1.123228431E0
5.505651483E0,6.415612102E-1,-1.627955884E-1,1.126588225E0
5.515651483E0,5.656611919E-1,4.108068720E-2,1.129031658E0
5.525651483E0,4.987714589E-1,2.083050460E-1,1.137431145E0
5.535651483E0,4.233296216E-1,3.715587854E-1,1.156673312E0
5.545651483E0,3.732386529E-1,4.665483236E-1,1.181718826E0
5.555651483E0,3.657555580E-1,4.870123267E-1,1.222188592E0
5.565651483E0,4.248567820E-1,3.561344445E-1,1.292132735E0
5.575651483E0,5.241223574E-1,1.583668143E-1,1.350775719E0
5.585651483E0,6.782131195E-1,-1.246165112E-1,1.390482068E0
5.595651483E0,8.217664957E-1,-3.449861407E-1,1.390176535E0
5.605651483E0,9.065240026E-1,-4.665483236E-1,1.373530507E0
5.615651483E0,9.118691087E-1,-4.995350540E-1,1.364825726E0
5.625651483E0,8.292495608E-1,-4.660901725E-1,1.362687588E0
5.635651483E0,6.707300544E-1,-3.402519524E-1,1.359938741E0
5.645651483E0,4.980078936E-1,-1.545489132E-1,1.349095941E0
5.655651483E0,3.825543523E-1,-3.207042441E-2,1.341460109E0
5.665651483E0,2.712241709E-1,3.665191308E-2,1.350470304E0
5.675651483E0,2.310597748E-1,5.497787148E-3,1.355204582E0
5.685651483E0,2.686280012E-1,-5.894849449E-2,1.339016676E0
5.695651483E0,3.736968040E-1,-1.262963861E-1,1.315192819E0
5.705651483E0,4.944954216E-1,-1.776090711E-1,1.304960847E0
5.715651483E0,6.275113225E-1,-2.142609805E-1,1.305877209E0
5.725651483E0,7.037167549E-1,-2.183843255E-1,1.331228137E0
5.735651483E0,7.254024744E-1,-1.803579628E-1,1.361924052E0
5.745651483E0,7.073819637E-1,-9.483683109E-2,1.378264666E0
5.755651483E0,6.313292384E-1,8.399397135E-3,1.403462887E0
5.765651483E0,5.273294449E-1,8.567385375E-2,1.411404133E0
5.775651483E0,4.331034720E-1,1.669189334E-1,1.397354245E0
5.785651483E0,3.662137091E-1,2.287690341E-1,1.370934367E0
5.795651483E0,3.376557529E-1,2.506074607E-1,1.353982806E0
5.805651483E0,3.498730659E-1,2.521346211E-1,1.334435105E0
5.815651483E0,4.042400718E-1,2.246456891E-1,1.318247199E0
5.825651483E0,5.090034604E-1,1.817324162E-1,1.303280950E0
5.835651483E0,6.123924255E-1,1.669189334E-1,1.305419087E0
5.845651483E0,7.363980412E-1,1.608102769E-1,1.324661255E0
5.855651483E0,8.077165484E-1,1.516472995E-1,1.352608323E0
5.865651483E0,8.248208165E-1,1.711949855E-1,1.399034142E0
5.875651483E0,8.107708693E-1,2.209804952E-1,1.448208809E0
5.885651483E0,7.841982841E-1,3.013092875E-1,1.503644824E0
5.895651483E0,7.791585922E-1,4.199698567E-1,1.544572830E0
5.905651483E0,7.803803682E-1,5.435173512E-1,1.585500717E0
5.915651483E0,7.328855991E-1,6.175847650E-1,1.628719449E0
5.925651483E0,6.531676650E-1,6.189591885E-1,1.672854424E0
5.935651483E0,5.248859525E-1,5.619960427E-1,1.732566595E0
5.945651483E0,4.042400718E-1,4.793764949E-1,1.782352090E0
5.955651483E0,3.497203588E-1,4.062253833E-1,1.821141958E0
5.965651483E0,3.408628106E-1,3.324634135E-1,1.854892373E0
5.975651483E0,3.666718602E-1,2.136501223E-1,1.892155051E0
5.985651483E0,4.353941977E-1,1.052215397E-1,1.901165366E0
5.995651483E0,5.248859525E-1,8.246680722E-3,1.889558911E0
6.005651483E0,6.174320579E-1,-3.970624134E-2,1.869553089E0
6.015651483E0,6.861543655E-1,-4.245513305E-2,1.852296114E0
6.025651483E0,7.728972435E-1,1.374446787E-3,1.835344672E0
6.035651483E0,8.518515825E-1,7.116580009E-2,1.807550311E0
6.045651483E0,9.405797720E-1,1.592831165E-1,1.776090741E0
6.055651483E0,1.009760261E0,2.275473028E-1,1.761582613E0
6.065651483E0,1.081536889E0,2.971859276E-1,1.750892520E0
6.075651483E0,1.126588225E0,3.283400834E-1,1.751045227E0
6.085651483E0,1.142776132E0,2.990185320E-1,1.763109803E0
6.095651483E0,1.134529471E0,1.687515229E-1,1.789224267E0
6.105651483E0,1.121395826E0,1.038470957E-2,1.806633949E0
6.115651483E0,1.127657294E0,-2.214386463E-1,1.823738217E0
6.125651483E0,1.142928839E0,-4.909829497E-1,1.823432803E0
6.135651483E0,1.185078621E0,-7.612907887E-1,1.807397485E0
6.145651483E0,1.238834739E0,-9.628763199E-1,1.781741261E0
6.155651483E0,1.338100314E0,-1.166447163E0,1.767080426E0
6.165651483E0,1.485777020E0,-1.310764074E0,1.789224267E0
6.175651483E0,1.657277465E0,-1.386511445E0,1.871538401E0
6.185651483E0,1.764026165E0,-1.480431914E0,1.986839175E0
6.195651483E0,1.868789554E0,-1.631010175E0,2.162768364E0
6.205651483E0,1.968055129E0,-1.831832170E0,2.304489136E0
6.215651483E0,2.010204792E0,-2.186744928E0,2.489275932E0
6.225651483E0,1.997223973E0,-2.563037872E0,2.671619177E0
6.235651483E0,1.946827531E0,-2.891683340E0,2.820059299E0
6.245651483E0,1.859321117E0,-3.187036753E0,3.055395126E0
6.255651483E0,1.726152420E0,-3.333949804E0,3.417485714E0
6.265651483E0,1.579239368E0,-3.340058327E0,4.001319885E0
6.275651483E0,1.587791443E0,-3.405115604E0,4.694346905E0
6.285651483E0,1.670716405E0,-3.310126066E0,5.399132252E0
6.295651483E0,1.642005801E0,-3.495370865E0,5.384624481E0
6.305651483E0,1.527773976E0,-3.979939699E0,4.762152672E0
6.315651483E0,1.475086808E0,-4.479475021E0,4.318817139E0
6.325651483E0,1.459051609E0,-4.809341908E0,4.297589779E0
6.335651483E0,1.430035591E0,-4.949077606E0,4.454276562E0
6.345651483E0,1.344208956E0,-4.948925018E0,4.709618092E0
6.355651483E0,1.226311922E0,-4.926169872E0,5.012760162E0
6.365651483E0,1.211040378E0,-4.867832184E0,5.270698071E0
6.375651483E0,1.435075164E0,-4.681365967E0,5.471519947E0
6.385651483E0,1.844812989E0,-4.218329906E0,5.060560226E0
6.395651483E0,2.181552410E0,-3.615100622E0,4.185495853E0
6.405651483E0,2.422996998E0,-3.163365602E0,3.662595272E0
6.415651483E0,2.715754271E0,-2.552805901E0,3.361438751E0
6.425651483E0,2.900540829E0,-2.048841953E0,3.290578365E0
6.435651483E0,2.958420277E0,-1.717600346E0,3.367852926E0
6.445651483E0,2.980106115E0,-1.452179432E0,3.508504629E0
6.455651483E0,2.984534979E0,-1.517542005E0,3.588680506E0
6.465651483E0,3.106249809E0,-2.083966732E0,3.603646755E0
6.475651483E0,3.390149355E0,-2.567161083E0,3.559206247E0
6.485651483E0,3.723376274E0,-2.739883423E0,3.302490234E0
6.495651483E0,3.895334959E0,-2.776535273E0,2.964987278E0
6.505651483E0,3.907246828E0,-2.883131266E0,2.527454853E0
6.515651483E0,3.749032736E0,-3.034778595E0,2.149634838E0
6.525651483E0,3.515682220E0,-3.042872429E0,1.839926124E0
6.535651483E0,3.212540388E0,-2.840370655E0,1.620625496E0
6.545651483E0,2.880076885E0,-2.528065920E0,1.462869525E0
6.555651483E0,2.346486092E0,-2.026392698E0,1.243110776E0
6.565651483E0,1.791514993E0,-1.475850463E0,9.955576062E-1
6.575651483E0,1.345125318E0,-9.767735004E-1,7.425066829E-1
6.585651483E0,1.120784998E0,-6.788240075E-1,5.212207437E-1
6.595651483E0,9.845620394E-1,-4.813618064E-1,2.501493096E-1
6.605651483E0,9.540187716E-1,-5.038111210E-1,1.572977938E-2
6.615651483E0,9.755517840E-1,-6.974554062E-1,-1.623374373E-1
6.625651483E0,1.018006921E0,-8.827002645E-1,-2.854267955E-1
6.635651483E0,1.100473762E0,-1.123839378E0,-3.869831264E-1
6.645651483E0,1.196837783E0,-1.406975389E0,-4.460843503E-1
6.655651483E0,1.271210551E0,-1.712255239E0,-5.088507533E-1
6.665651483E0,1.117730737E0,-2.157576084E0,-5.500841737E-1
6.675651483E0,8.448266387E-1,-2.469575405E0,-5.403103232E-1
6.685651483E0,4.103487432E-1,-2.819448471E0,-4.376849532E-1
6.695651483E0,-5.222897977E-2,-3.267976284E0,-5.955936015E-2
6.705651483E0,-4.381431043E-1,-3.548974276E0,3.142901659E-1
6.715651483E0,-5.198463202E-1,-3.476128578E0,5.004513264E-1
6.725651483E0,-5.039638281E-1,-3.237585783E0,6.067419052E-1
6.735651483E0,-2.710714638E-1,-2.876564503E0,5.264131427E-1
6.745651483E0,-7.483099122E-3,-2.627942324E0,2.183843255E-1
6.755651483E0,1.873829067E-1,-2.407878160E0,-3.642283976E-1
6.765651483E0,2.225076705E-1,-2.280665398E0,-9.092729092E-1
6.775651483E0,-1.627955884E-1,-2.116189957E0,-1.499826908E0
6.785651483E0,-4.355469346E-1,-1.781130314E0,-1.882228494E0
6.795651483E0,-4.790710807E-1,-1.507310033E0,-2.052812576E0
6.805651483E0,-4.221078753E-1,-1.332907915E0,-1.998140216E0
6.815651483E0,-3.084869385E-1,-1.137278318E0,-1.660484433E0
6.825651483E0,-2.669481039E-1,-9.863946438E-1,-1.156673312E0
6.835651483E0,-4.276056588E-1,-1.079398870E0,-6.417139173E-1
6.845651483E0,-6.669121385E-1,-1.416138411E0,-3.110831380E-1
6.855651483E0,-9.326385260E-1,-2.029752493E0,-5.390885845E-2
6.865651483E0,-1.021214008E0,-2.460870743E0,-9.025534242E-2
6.875651483E0,-8.958339095E-1,-2.502867699E0,-4.398229718E-1
6.885651483E0,-2.837468982E-1,-2.561510801E0,-5.900958180E-1
6.895651483E0,8.695666790E-1,-3.043330669E0,-4.751004577E-1
6.905651483E0,1.159574986E0,-3.224452257E0,6.954700947E-1
6.915651483E0,9.043859839E-1,-2.595261097E0,2.115426302E0
6.925651483E0,7.188356519E-1,-1.502728462E0,3.031113386E0
6.935651483E0,6.577491760E-1,-4.891503453E-1,3.399159670E0
6.945651483E0,5.216789246E-1,6.145304441E-1,3.291800022E0
6.955651483E0,2.330450863E-1,9.295842052E-1,2.933833122E0
6.965651483E0,5.129740834E-1,-3.349068761E-1,2.496911764E0
6.975651483E0,6.093380973E-2,-5.532912016E-1,2.284025192E0
6.985651483E0,-1.291979998E-1,-4.570799172E-1,2.232407093E0
6.995651483E0,-6.032294407E-2,-4.657847583E-1,2.399478674E0
7.005651483E0,4.836525619E-1,-1.267545342E0,2.156201601E0
7.015651483E0,6.756169796E-1,-1.522581577E0,2.318080902E0
7.025651483E0,7.455610037E-1,-1.622152686E0,2.521346331E0
7.035651483E0,9.068294764E-1,-1.643991113E0,2.779742241E0
7.045651483E0,9.813550115E-1,-1.718822122E0,2.945134163E0
7.055651483E0,8.319984674E-1,-1.526552200E0,2.902526140E0
7.065651483E0,7.037167549E-1,-1.370018005E0,2.727818727E0
7.075651483E0,5.071708560E-1,-1.054964304E0,2.346486092E0
7.085651483E0,5.022839308E-1,-8.497135639E-1,2.017993450E0
7.095651483E0,7.238753438E-1,-7.996225953E-1,1.818851233E0
7.105651483E0,8.634580374E-1,-5.572618246E-1,1.517236590E0
7.115651483E0,9.578366876E-1,-2.141082734E-1,1.293048978E0
7.125651483E0,7.305948138E-1,-2.900082767E-1,1.688584208E0
7.135651483E0,1.252884626E0,-3.538436890E-1,1.435838699E0
7.145651483E0,1.303739190E0,-1.665524125E0,1.077108145E0
7.155651483E0,8.281805515E-1,-1.988519073E0,8.845328689E-1
7.165651483E0,1.394299865E-1,-1.233184218E0,3.611740768E-1
7.175651483E0,-5.772676468E-1,-6.064364910E-1,4.428773187E-3
7.185651483E0,-9.663888216E-1,-1.047023058E0,1.785253733E-1
7.195651483E0,-8.672759533E-1,-1.813964367E0,7.284568250E-2
7.205651483E0,-7.418958545E-1,-2.072665691E0,-1.166752651E-1
7.215651483E0,-3.770565689E-1,-1.766469598E0,-4.294382632E-1
7.225651483E0,2.881756723E-1,-9.644035101E-1,-6.924157739E-1
7.235651483E0,6.282749176E-1,-9.760099649E-1,-7.956519723E-1
7.245651483E0,7.312057018E-1,-6.145304441E-1,-7.742717266E-1
7.255651483E0,8.022187948E-1,-1.337794960E-1,-6.754642725E-1
7.265651483E0,8.326093554E-1,2.545780838E-1,-3.437644243E-1
7.275651483E0,8.031350970E-1,7.082982659E-1,-2.081523389E-1
7.285651483E0,6.745479703E-1,5.568036437E-1,-3.443752825E-1
7.295651483E0,4.917465150E-1,4.317290187E-1,-2.530509233E-1
7.305651483E0,3.680463135E-1,4.170682430E-1,-7.712173462E-2
7.315651483E0,4.353941977E-1,3.338378668E-1,2.718350291E-2
7.325651483E0,5.823072791E-1,1.493565589E-1,2.078468949E-1
7.335651483E0,7.166976333E-1,-1.110247597E-1,3.527746797E-1
7.345651483E0,8.743008971E-1,-5.919284225E-1,5.073235631E-1
7.355651483E0,1.027628064E0,-1.253037333E0,6.269004345E-1
7.365651483E0,1.204779029E0,-1.967291474E0,6.959282160E-1
7.375651483E0,1.388649464E0,-2.495231867E0,7.441865802E-1
7.385651483E0,1.580919266E0,-2.892141581E0,8.564330935E-1
7.395651483E0,1.618487477E0,-2.724458933E0,9.891435504E-1
7.405651483E0,1.481500983E0,-2.124436617E0,6.091853380E-1
7.415651483E0,1.278846383E0,-1.721876383E0,-3.075706363E-1
7.425651483E0,1.045343161E0,-1.382235289E0,-5.592471361E-1
7.435651483E0,7.582364678E-1,-5.094616413E-1,-8.885034919E-1
7.445651483E0,4.737260044E-1,1.363756657E-1,-9.688322544E-1
7.455651483E0,4.048509300E-1,4.990769029E-1,-6.285803318E-1
7.465651483E0,5.187773108E-1,5.485569835E-1,-2.611449063E-1
7.475651483E0,7.359399199E-1,2.359467000E-1,-4.581489414E-2
7.485651483E0,8.266534209E-1,-1.983784884E-1,-3.604105115E-2
7.495651483E0,8.743008971E-1,-2.901609838E-1,2.321287990E-2
7.505651483E0,8.998045325E-1,-3.735440969E-1,8.613199741E-2
7.515651483E0,9.563095570E-1,-4.896084964E-1,1.183551401E-1
7.525651483E0,1.026253581E0,-4.737260044E-1,2.599231601E-1
7.535651483E0,1.029307961E0,-3.878994286E-1,7.170031071E-1
7.545651483E0,9.150761366E-1,-4.665483236E-1,1.186758399E0
7.555651483E0,6.760751009E-1,-4.896084964E-1,1.531286478E0
7.565651483E0,2.938261926E-1,-5.647448897E-1,1.514487624E0
7.575651483E0,2.671008408E-1,-4.925101101E-1,1.237765670E0
7.585651483E0,4.436408877E-1,-3.764457107E-1,1.013425469E0
7.595651483E0,5.418374538E-1,-1.420261711E-1,9.279043078E-1
7.605651483E0,6.035348773E-1,4.184427112E-2,8.469646573E-1
7.615651483E0,6.759223938E-1,-7.208210230E-2,7.583891749E-1
7.625651483E0,7.678576112E-1,-5.864306539E-2,7.289149761E-1
7.635651483E0,8.093964458E-1,7.086037099E-2,6.783658266E-1
7.645651483E0,8.158105612E-1,1.595885456E-1,5.969680548E-1
7.655651483E0,7.284567952E-1,2.796235681E-1,4.549418986E-1
7.665651483E0,4.699080884E-1,7.930558324E-1,4.324925840E-1
7.675651483E0,3.310889602E-1,9.101892114E-1,4.566217661E-1
7.685651483E0,2.845104933E-1,6.791294217E-1,4.786129296E-1
7.695651483E0,2.744311988E-1,3.675881624E-1,4.903720617E-1
7.705651483E0,3.182607889E-1,3.872885704E-1,3.268128932E-1
7.715651483E0,2.961169183E-1,3.950771093E-1,2.060143054E-1
7.725651483E0,2.272418737E-1,3.961461186E-1,9.880745411E-2
7.735651483E0,6.688974798E-2,3.385720551E-1,-1.374446787E-3
7.745651483E0,-1.143845171E-1,2.987131178E-1,-4.031710699E-2
7.755651483E0,-2.061670274E-2,7.084509730E-1,-9.941831976E-2
7.765651483E0,3.619376570E-2,5.668829679E-1,-1.136209369E-1
7.775651483E0,1.437060535E-1,6.201809645E-1,-9.773843922E-3
7.785651483E0,2.083050460E-1,3.460551500E-1,2.632829249E-1
7.795651483E0,2.661845386E-1,9.407325089E-2,2.814561725E-1
7.805651483E0,1.892155111E-1,-5.849034712E-2,2.147191316E-1
7.815651483E0,1.153008118E-1,-1.568396538E-1,1.178969890E-1
7.825651483E0,2.962696366E-2,4.505131021E-2,3.207042580E-3
7.835651483E0,-7.406741381E-2,1.994474977E-1,-1.777617931E-1
7.845651483E0,-2.483167201E-1,6.811147183E-2,-2.794708610E-1
7.855651483E0,-4.170682430E-1,-1.039998084E-1,-3.045163155E-1
7.865651483E0,-4.935791194E-1,-1.893682331E-1,-3.170390725E-1
7.875651483E0,-6.275113225E-1,-3.057380617E-1,-5.994115472E-1
7.885651483E0,-8.119926453E-1,-4.146247804E-1,-1.013578176E0
7.895651483E0,-1.026711702E0,-4.531092942E-1,-1.339322090E0
7.905651483E0,-1.211803913E0,-3.709479272E-1,-1.499674201E0
7.915651483E0,-1.546252608E0,-4.419609904E-1,-1.532508135E0
7.925651483E0,-2.030668736E0,-4.749477208E-1,-1.187522054E0
7.935651483E0,-2.487596035E0,-4.251621962E-1,-6.908885837E-1
7.945651483E0,-2.646726370E0,-3.426954150E-1,-3.972151279E-1
7.955651483E0,-2.529898405E0,-2.351831198E-1,-1.209513173E-1
7.965651483E0,-2.185523033E0,-2.623666227E-1,1.615738571E-1
7.975651483E0,-1.830457687E0,-2.741257846E-1,3.416263759E-1
7.985651483E0,-1.685988069E0,-4.654793143E-1,4.379903674E-1
7.995651483E0,-1.630246639E0,-6.178901792E-1,3.979786932E-1
8.005651483E0,-1.574963331E0,-4.066835344E-1,2.257147133E-1
8.015651483E0,-1.394299865E0,2.449569702E-1,3.237585723E-2
8.025651483E0,-1.278846383E0,9.008735418E-1,-1.742493063E-1
8.035651483E0,-1.179428101E0,1.128573537E0,-3.649919927E-1
8.045651483E0,-1.148732066E0,8.779660463E-1,-6.604980230E-1
8.055651483E0,-1.208444118E0,3.596469164E-1,-1.028238893E0
8.065651483E0,-1.195768714E0,-3.420845419E-2,-1.401477575E0
8.075651483E0,-1.082300544E0,-6.546948552E-1,-1.575879574E0
8.085651483E0,-8.842274547E-1,-1.033125877E0,-1.468367338E0
8.095651483E0,-6.411030889E-1,-1.464549422E0,-1.226922870E0
8.105651483E0,-4.230241776E-1,-1.745242000E0,-1.034805775E0
8.115651483E0,-3.167336285E-1,-1.578170419E0,-8.998045325E-1
8.125651483E0,-2.127338201E-1,-1.541823864E0,-8.350527883E-1
8.135651483E0,-7.131851465E-2,-1.338863850E0,-8.683449626E-1
8.145651483E0,3.176499158E-2,-1.096503139E0,-5.962044597E-1
8.155651483E0,6.841690838E-2,-8.405506015E-1,-4.752531648E-1
8.165651483E0,3.924809024E-2,-6.360634565E-1,-2.886338234E-1
8.175651483E0,8.567385375E-2,-4.854851663E-1,-1.401935667E-1
8.185651483E0,2.191479057E-1,-3.304781020E-1,1.069014147E-2
8.195651483E0,3.649919927E-1,-1.970040351E-1,1.233947799E-1
8.205651483E0,5.099197626E-1,-7.956519723E-2,2.422080636E-1
8.215651483E0,6.035348773E-1,-1.023199260E-1,3.298672438E-1
8.225651483E0,7.028004527E-1,-1.937969923E-1,4.243986309E-1
8.235651483E0,7.918340564E-1,-2.409863323E-1,4.911356568E-1
8.245651483E0,8.497135639E-1,-2.527455091E-1,5.276348591E-1
8.255651483E0,8.767443299E-1,-2.646573782E-1,5.164865851E-1
8.265651483E0,8.648324609E-1,-2.927571833E-1,4.613559842E-1
8.275651483E0,7.982481718E-1,-2.819143236E-1,3.639229834E-1
8.285651483E0,6.748533845E-1,-2.275473028E-1,2.802344263E-1
8.295651483E0,4.775438905E-1,-1.449277848E-1,2.357939780E-1
8.305651483E0,2.672535479E-1,-1.211040318E-1,1.667662114E-1
8.315651483E0,-4.734205548E-3,-7.528914511E-2,-9.621127509E-3
8.325651483E0,-2.026545405E-1,4.718934000E-2,-1.783726513E-1
8.335651483E0,-3.118467033E-1,1.591303945E-1,-2.495384514E-1
8.345651483E0,-3.266601861E-1,1.643227488E-1,-3.190243840E-1
8.355651483E0,-3.208569586E-1,1.840231568E-1,-3.324634135E-1
8.365651483E0,-2.774855494E-1,2.663372457E-1,-2.674062550E-1
8.375651483E0,-1.449277848E-1,5.145012736E-1,-1.062905490E-1
8.385651483E0,-3.940080851E-2,8.619308472E-1,2.840523422E-2
8.395651483E0,2.582432926E-1,9.367618561E-1,1.614211351E-1
8.405651483E0,4.480696619E-1,9.857838154E-1,3.200933933E-1
8.415651483E0,5.791002512E-1,1.037707329E0,5.190827250E-1
8.425651483E0,6.768386960E-1,1.086729288E0,6.998988390E-1
8.435651483E0,6.814202070E-1,1.130406141E0,7.929030657E-1
8.445651483E0,6.188064814E-1,1.131780624E0,8.637634516E-1
8.455651483E0,5.224425197E-1,1.069472313E0,8.660541773E-1
8.465651483E0,3.926336467E-1,1.033889413E0,8.184067011E-1
8.475651483E0,2.648100853E-1,1.043815970E0,7.626652718E-1
8.485651483E0,1.530217379E-1,1.041830659E0,6.809620261E-1
8.495651483E0,1.067487001E-1,1.012203693E0,6.394231915E-1
8.505651483E0,7.742717117E-2,8.807149529E-1,6.229298115E-1
8.515651483E0,9.880745411E-2,7.179193497E-1,6.342308521E-1
8.525651483E0,1.585195363E-1,4.205807149E-1,6.458373070E-1
8.535651483E0,2.806925774E-1,2.718350291E-2,6.337726712E-1
8.545651483E0,4.747950137E-1,-2.072360367E-1,6.346889734E-1
8.555651483E0,6.937901974E-1,-1.278235465E-1,6.811147332E-1
8.565651483E0,8.820894361E-1,1.693623960E-1,7.397578359E-1
8.575651483E0,1.054200649E0,6.094908118E-1,8.565858006E-1
8.585651483E0,1.174541116E0,8.454375267E-1,9.992228150E-1
8.595651483E0,1.198059440E0,9.457721114E-1,1.079093456E0
8.605651483E0,1.156520605E0,9.173668623E-1,1.043663263E0
8.615651483E0,1.102917194E0,8.768970370E-1,9.359982610E-1
8.625651483E0,1.050077319E0,8.614727259E-1,7.272350788E-1
8.635651483E0,9.896016717E-1,1.104749799E0,5.187773108E-1
8.645651483E0,9.024006724E-1,1.332449794E0,3.967569768E-1
8.655651483E0,8.052731156E-1,1.340238333E0,3.530801237E-1
8.665651483E0,6.731734872E-1,1.285260439E0,2.761110961E-1
8.675651483E0,5.824599862E-1,1.276097536E0,2.029599845E-1
8.685651483E0,4.521929920E-1,1.392467380E0,1.733330190E-1
8.695651483E0,3.332269788E-1,1.491732955E0,1.653917581E-1
8.705651483E0,1.716531366E-1,1.552514076E0,1.586722434E-1
8.715651483E0,3.894266114E-2,1.450499535E0,1.669189334E-1
8.725651483E0,-1.588249579E-2,1.310000539E0,1.980730593E-1
8.735651483E0,1.175915636E-2,1.246165156E0,2.477058619E-1
8.745651483E0,8.674286306E-2,1.240667343E0,3.013092875E-1
8.755651483E0,2.116648108E-1,1.277013779E0,4.050036669E-1
8.765651483E0,3.254384696E-1,1.322828650E0,5.332853794E-1
8.775651483E0,4.108068645E-1,1.281442523E0,6.525567770E-1
8.785651483E0,4.636467099E-1,1.162781954E0,7.299839854E-1
8.795651483E0,5.384777188E-1,9.521862268E-1,8.239045143E-1
8.805651483E0,6.411030889E-1,7.797694802E-1,9.350819588E-1
8.815651483E0,7.192938328E-1,7.028004527E-1,1.041983366E0
8.825651483E0,7.202101350E-1,7.319692969E-1,1.100779176E0
8.835651483E0,6.769914031E-1,7.583891749E-1,1.114370942E0
8.845651483E0,5.653557777E-1,7.548767328E-1,1.087645531E0
8.855651483E0,3.801108897E-1,7.261660695E-1,1.013425469E0
8.865651483E0,1.708895564E-1,6.520986557E-1,9.120218158E-1
8.875651483E0,1.985312067E-2,5.396994352E-1,7.664831877E-1
8.885651483E0,-7.376197726E-2,4.367686510E-1,5.645921826E-1
8.895651483E0,-6.750060618E-2,4.240931869E-1,4.302018583E-1
8.905651483E0,-2.565634064E-2,4.019493461E-1,3.298672438E-1
8.915651483E0,1.649336144E-2,3.695734739E-1,2.759583890E-1
8.925651483E0,7.330382615E-2,3.323107064E-1,2.438879460E-1
8.935651483E0,1.631010175E-1,3.101668358E-1,2.278527319E-1
8.945651483E0,2.715296149E-1,2.820670307E-1,1.970040351E-1
8.955651483E0,3.497203588E-1,3.174972236E-1,1.627955884E-1
8.965651483E0,3.442225754E-1,3.703370690E-1,1.313360333E-1
8.975651483E0,2.551889420E-1,4.187481403E-1,7.803803682E-2
8.985651483E0,1.259909570E-1,4.349360466E-1,-1.557706390E-2
8.995651483E0,1.878410578E-2,4.702135324E-1,-1.678352207E-1
9.005651483E0,-6.230825558E-2,5.827654600E-1,-3.002402782E-1
9.015651483E0,-2.015855312E-1,7.290676832E-1,-4.175263941E-1
9.025651483E0,-3.885102868E-1,8.683449626E-1,-4.983133376E-1
9.035651483E0,-5.584835410E-1,9.185886383E-1,-5.966626406E-1
9.045651483E0,-7.223481536E-1,9.550877810E-1,-6.510296464E-1
9.055651483E0,-8.550586104E-1,8.520042896E-1,-6.855435371E-1
9.065651483E0,-1.035722017E0,8.636107445E-1,-7.060074806E-1
9.075651483E0,-1.203709960E0,9.625709057E-1,-7.551821470E-1
9.085651483E0,-1.551139593E0,1.181260705E0,-8.694139719E-1
9.095651483E0,-1.970803976E0,1.371239781E0,-1.033736706E0
9.105651483E0,-2.362979412E0,1.410946012E0,-1.241583586E0
9.115651483E0,-2.458579779E0,1.500743151E0,-1.281289816E0
9.125651483E0,-2.380541801E0,1.444849014E0,-1.215774536E0
9.135651483E0,-2.171625853E0,1.314887404E0,-1.019075990E0
9.145651483E0,-2.005317926E0,1.064127207E0,-7.935139537E-1
9.155651483E0,-1.922240257E0,8.752171993E-1,-5.871942043E-1
9.165651483E0,-1.914299011E0,7.333437204E-1,-4.158465266E-1
9.175651483E0,-1.784031987E0,7.301366925E-1,-2.561052442E-1
9.185651483E0,-1.573436141E0,7.896960378E-1,-1.719585657E-1
9.195651483E0,-1.274723053E0,1.080926061E0,-3.601050675E-1
9.205651483E0,-1.210429430E0,1.349554062E0,-6.957755089E-1
9.215651483E0,-1.165836334E0,1.532202721E0,-8.315402865E-1
9.225651483E0,-1.093601465E0,1.453095675E0,-7.783950567E-1
9.235651483E0,-9.408851862E-1,1.190576315E0,-6.714936495E-1
9.245651483E0,-8.564330935E-1,7.686212063E-1,-4.601342380E-1
9.255651483E0,-6.154467463E-1,2.897028327E-1,-5.169447064E-1
9.265651483E0,-4.413501322E-1,-3.649919853E-2,-5.751296282E-1
9.275651483E0,-3.668245673E-1,-2.292271852E-1,-6.140722632E-1
9.285651483E0,-2.214386463E-1,-5.018258095E-1,-6.756169796E-1
9.295651483E0,-1.641700417E-1,-6.899722815E-1,-6.840163469E-1
9.305651483E0,-1.574505121E-1,-7.467827797E-1,-6.062837839E-1
9.315651483E0,-1.441642046E-1,-7.168503404E-1,-4.535674453E-1
9.325651483E0,-8.261952549E-2,-7.231117487E-1,-2.900082767E-1
9.335651483E0,2.397646010E-2,-5.757405162E-1,-1.270599663E-1
9.345651483E0,1.336267740E-1,-4.897612035E-1,5.024366826E-2
9.355651483E0,2.228130996E-1,-4.392121136E-1,1.736384481E-1
9.365651483E0,3.807217777E-1,-2.753475010E-1,3.341432810E-1
9.375651483E0,4.906775057E-1,-2.157881409E-1,4.440990388E-1
9.385651483E0,5.554292202E-1,-2.866485119E-1,5.169447064E-1
9.395651483E0,6.279694438E-1,-4.123340547E-1,5.722280145E-1
9.405651483E0,6.979135275E-1,-5.100724697E-1,6.278167367E-1
9.415651483E0,7.880161405E-1,-6.661485434E-1,6.670648456E-1
9.425651483E0,8.272642493E-1,-7.870998979E-1,6.626361012E-1
9.435651483E0,7.742717266E-1,-7.640396953E-1,6.140722632E-1
9.445651483E0,6.294966340E-1,-6.601926088E-1,6.123924255E-1
9.455651483E0,3.507893682E-1,-4.387539625E-1,5.798638463E-1
9.465651483E0,-3.207042580E-3,-7.605272532E-2,3.455969989E-1
9.475651483E0,-2.803871334E-1,3.341432810E-1,9.804387391E-2
9.485651483E0,-3.617849350E-1,7.990117669E-1,-1.056796908E-1
9.495651483E0,-2.675589919E-1,1.057865858E0,-1.666134894E-1
9.505651483E0,-2.313652188E-1,1.221730471E0,-2.477058619E-1
9.515651483E0,-2.860376537E-1,1.167058110E0,-2.136501223E-1
9.525651483E0,-2.304489166E-1,9.240863919E-1,-7.834346592E-2
9.535651483E0,-1.802052408E-1,8.223773241E-1,1.740965992E-2
9.545651483E0,-1.325577646E-1,6.346889734E-1,1.421788931E-1
9.555651483E0,2.718350291E-2,4.004221559E-1,2.528982162E-1
9.565651483E0,2.209804952E-1,2.982549667E-1,2.788599730E-1
9.575651483E0,3.036000133E-1,2.684752643E-1,2.724458873E-1
9.585651483E0,3.498730659E-1,3.006984293E-1,3.019201458E-1
9.595651483E0,3.804163337E-1,4.404338300E-1,3.697261810E-1
9.605651483E0,3.181080818E-1,6.429356933E-1,4.343251884E-1
9.615651483E0,2.263255715E-1,8.332201838E-1,4.343251884E-1
9.625651483E0,1.795943826E-1,9.564622641E-1,4.302018583E-1
9.635651483E0,1.562287807E-1,1.072832108E0,4.053090811E-1
9.645651483E0,1.624901593E-1,1.065654397E0,3.807217777E-1
9.655651483E0,1.864666194E-1,8.895725012E-1,3.675881624E-1
9.665651483E0,2.270891517E-1,6.470590234E-1,3.869831264E-1
9.675651483E0,2.851213515E-1,2.941316068E-1,4.752531648E-1
9.685651483E0,4.065308273E-1,8.155050874E-2,6.058256030E-1
9.695651483E0,5.772676468E-1,1.905899495E-1,7.147123218E-1
9.705651483E0,7.913759351E-1,4.980078936E-1,7.562511563E-1
9.715651483E0,9.300423265E-1,8.403978348E-1,7.689266205E-1
9.725651483E0,1.047939301E0,1.182329655E0,7.948883772E-1
9.735651483E0,1.097877502E0,1.334740520E0,8.176431060E-1
9.745651483E0,1.060767531E0,1.236544013E0,7.597636580E-1
9.755651483E0,1.010218382E0,1.255938888E0,7.111998796E-1
9.765651483E0,9.207266569E-1,1.473101497E0,7.124215961E-1
9.775651483E0,8.092437387E-1,1.779603124E0,7.289149761E-1
9.785651483E0,7.250970602E-1,1.955226898E0,7.118107080E-1
9.795651483E0,7.096726894E-1,2.020436764E0,6.473644376E-1
9.805651483E0,7.286095023E-1,2.076178312E0,5.745187402E-1
9.815651483E0,6.733261943E-1,2.078010798E0,5.940664411E-1
9.825651483E0,6.230825782E-1,2.069916964E0,6.258314252E-1
9.835651483E0,6.035348773E-1,2.063350201E0,6.514877677E-1
9.845651483E0,5.699372888E-1,2.114357233E0,6.676757336E-1
9.855651483E0,5.100724697E-1,2.087937355E0,6.860016584E-1
9.865651483E0,4.541783035E-1,1.920407653E0,7.144069076E-1
9.875651483E0,4.402811229E-1,1.612378836E0,7.214318514E-1
9.885651483E0,4.824308157E-1,1.359175205E0,7.028004527E-1
9.895651483E0,5.282457471E-1,1.197906733E0,6.945537925E-1
9.905651483E0,5.542075038E-1,1.195463300E0,7.446447611E-1
9.915651483E0,5.945246220E-1,1.218828917E0,8.338310719E-1
9.925651483E0,6.629415154E-1,1.141707182E0,9.419541955E-1
9.935651483E0,7.321220040E-1,9.960157871E-1,1.026406288E0
9.945651483E0,8.126034737E-1,8.248208165E-1,1.129184365E0
9.955651483E0,9.097310901E-1,7.101308703E-1,1.221119642E0
9.965651483E0,9.683741331E-1,6.220135093E-1,1.291369081E0
9.975651483E0,1.000902653E0,5.609270334E-1,1.325119376E0
9.985651483E0,9.964739084E-1,5.213735104E-1,1.378722906E0
9.995651483E0,9.263771176E-1,5.410739183E-1,1.447292447E0
1.000565148E1,8.229882121E-1,5.665774941E-1,1.511127949E0
1.001565148E1,7.342600226E-1,6.046038866E-1,1.535867929E0
1.002565148E1,6.171266437E-1,6.378960609E-1,1.503339410E0
1.003565148E1,5.022839308E-1,5.832235813E-1,1.387274981E0
1.004565148E1,3.940080702E-1,4.778493345E-1,1.179275393E0
1.005565148E1,3.813326359E-1,4.928155243E-1,8.863654733E-1
1.006565148E1,3.911064863E-1,6.012440920E-1,5.926920176E-1
1.007565148E1,5.036584139E-1,7.293730974E-1,2.574796975E-1
1.008565148E1,6.635523438E-1,6.765332818E-1,-6.780604273E-2
1.009565148E1,7.670940161E-1,7.412849665E-1,-2.666426897E-1
1.010565148E1,7.935139537E-1,6.982190013E-1,-1.667662114E-1
1.011565148E1,8.663596511E-1,9.894489646E-1,-1.556179225E-1
1.012565148E1,7.681630254E-1,1.097724795E0,-1.913535446E-1
1.013565148E1,5.633704662E-1,1.084591269E0,-2.240348309E-1
1.014565148E1,3.100140989E-1,1.122617602E0,-2.808452845E-1
1.015565148E1,4.138612002E-2,1.197448611E0,-3.825543523E-1
1.016565148E1,-3.830125034E-1,1.263269305E0,-5.010622144E-1
1.017565148E1,-8.429940343E-1,1.328784585E0,-6.403394938E-1
1.018565148E1,-1.206306100E0,1.430799127E0,-7.625125647E-1
1.019565148E1,-1.389565706E0,1.565342188E0,-8.359690905E-1
1.020565148E1,-1.522581577E0,1.820378423E0,-8.941540122E-1
1.021565148E1,-1.590693116E0,2.103056431E0,-9.425650835E-1
1.022565148E1,-1.697899938E0,2.358397961E0,-1.000749946E0
1.023565148E1,-1.804954052E0,2.601827860E0,-1.100626469E0
1.024565148E1,-1.999514699E0,2.979342461E0,-1.241125464E0
1.025565148E1,-2.276083946E0,2.894432306E0,-1.311833143E0
1.026565148E1,-2.434603453E0,2.232101679E0,-1.343292713E0
1.027565148E1,-2.289675713E0,1.654223084E0,-1.425912142E0
1.028565148E1,-2.018604279E0,1.342376351E0,-1.452484846E0
1.029565148E1,-1.574657917E0,1.055727839E0,-1.278999090E0
1.030565148E1,-1.078329921E0,8.122980595E-1,-1.060156584E0
1.031565148E1,-6.719517708E-1,9.363036752E-1,-9.222537875E-1
1.032565148E1,-4.663956165E-1,1.235780358E0,-7.965682745E-1
1.033565148E1,-3.773620129E-1,1.856419444E0,-9.129381180E-1
1.034565148E1,-4.248567820E-1,2.371989727E0,-1.100626469E0
1.035565148E1,-4.063780904E-1,2.566092253E0,-1.371850610E0
1.036565148E1,-4.302018583E-1,2.267684460E0,-1.554041147E0
1.037565148E1,-3.906483352E-1,1.794263959E0,-1.421177983E0
1.038565148E1,-3.767511547E-1,1.092074394E0,-1.245554209E0
1.039565148E1,-4.488332272E-1,3.904955983E-1,-1.106276989E0
1.040565148E1,-5.225952268E-1,-2.707660198E-1,-9.448558092E-1
1.041565148E1,-4.937318265E-1,-5.514585972E-1,-9.098837972E-1
1.042565148E1,-4.627304375E-1,-9.080511928E-1,-8.703302741E-1
1.043565148E1,-3.697261810E-1,-1.098793864E0,-7.652614117E-1
1.044565148E1,-2.341141105E-1,-1.140943527E0,-6.388123035E-1
1.045565148E1,-1.452332139E-1,-1.191798091E0,-5.708535910E-1
1.046565148E1,1.023199316E-2,-1.134224057E0,-4.780020416E-1
1.047565148E1,1.601994038E-1,-1.034042120E0,-3.361285925E-1
1.048565148E1,2.660318017E-1,-9.308059216E-1,-1.782199293E-1
1.049565148E1,3.193297982E-1,-8.501716852E-1,-1.191187184E-2
1.050565148E1,3.407101035E-1,-7.759515643E-1,1.264491081E-1
1.051565148E1,3.495676219E-1,-6.873761415E-1,2.953533530E-1
1.052565148E1,3.492622077E-1,-6.476698518E-1,4.335615933E-1
1.053565148E1,3.741549551E-1,-6.664539576E-1,5.517640114E-1
1.054565148E1,4.056145251E-1,-7.339546084E-1,6.258314252E-1
1.055565148E1,4.454734921E-1,-8.958339095E-1,7.079927921E-1
1.056565148E1,4.534147382E-1,-1.062752843E0,7.741189599E-1
1.057565148E1,3.820962012E-1,-1.154535294E0,8.043568134E-1
1.058565148E1,2.130392492E-1,-1.086271167E0,7.732026577E-1
1.059565148E1,5.787948146E-2,-9.280570149E-1,6.717990637E-1
1.060565148E1,-9.117163718E-2,-6.698137522E-1,4.610505402E-1
1.061565148E1,-1.580613852E-1,-3.072652221E-1,1.566869318E-1
1.062565148E1,-1.905899495E-1,1.925752759E-1,-6.643159688E-2
1.063565148E1,-1.675297916E-1,5.490151644E-1,-1.780672222E-1
1.064565148E1,-7.437284291E-2,7.870998979E-1,-2.527455091E-1
1.065565148E1,-1.404990070E-2,7.802276611E-1,-2.125810981E-1
1.066565148E1,-3.817907721E-2,6.296493411E-1,-8.506298810E-2
1.067565148E1,-7.544185966E-2,4.448626041E-1,6.108652451E-4
1.068565148E1,-9.926560521E-2,1.679879427E-1,1.261436790E-1
1.069565148E1,-5.910121277E-2,-1.398881376E-1,2.464841306E-1
1.070565148E1,4.260785133E-2,-4.532620013E-1,3.472768962E-1
1.071565148E1,1.931861341E-1,-6.406449080E-1,4.033237696E-1
1.072565148E1,3.410155177E-1,-6.809620261E-1,4.590652287E-1
1.073565148E1,5.041165352E-1,-5.364924073E-1,5.852088928E-1
1.074565148E1,5.852088928E-1,-8.506298810E-2,6.937901974E-1
1.075565148E1,5.902485251E-1,4.752531648E-1,7.089090943E-1
1.076565148E1,5.974262357E-1,8.214610219E-1,6.424775124E-1
1.077565148E1,6.323982477E-1,1.103375316E0,5.059491396E-1
1.078565148E1,7.055493593E-1,1.243568897E0,3.576616049E-1
1.079565148E1,7.953465581E-1,1.223104954E0,2.364048511E-1
1.080565148E1,8.432994485E-1,9.970847964E-1,1.875356287E-1
1.081565148E1,8.284859657E-1,6.560692787E-1,2.101376504E-1
1.082565148E1,7.061602473E-1,1.685988009E-1,3.176499307E-1
1.083565148E1,4.740314186E-1,-2.637410760E-1,4.439463317E-1
1.084565148E1,2.284636050E-1,-5.943718553E-1,5.438227654E-1
1.085565148E1,1.036943719E-1,-7.408268452E-1,6.177374721E-1
1.086565148E1,6.918048859E-2,-8.408560157E-1,6.734789610E-1
1.087565148E1,2.335032374E-1,-7.163922191E-1,6.701191664E-1
1.088565148E1,4.940372705E-1,-5.027421117E-1,6.782131195E-1
1.089565148E1,6.969972253E-1,-3.167336285E-1,7.057020664E-1
1.090565148E1,8.897252083E-1,-8.414668590E-2,7.139487267E-1
1.091565148E1,1.032056808E0,1.478293836E-1,7.199047208E-1
1.092565148E1,1.112996459E0,3.868304193E-1,6.733261943E-1
1.093565148E1,1.139110923E0,5.665774941E-1,6.023131609E-1
1.094565148E1,1.129489779E0,5.424483418E-1,5.019785166E-1
1.095565148E1,1.044579625E0,2.244929820E-1,4.065308273E-1
1.096565148E1,9.928087592E-1,9.773843922E-3,3.321579695E-1
1.097565148E1,9.078984857E-1,-9.804387391E-2,1.681406647E-1
1.098565148E1,8.390234113E-1,-8.949175477E-2,2.916881628E-2
1.099565148E1,7.400632501E-1,-3.359758854E-2,-7.055493444E-2
1.100565148E1,6.296493411E-1,-3.466660157E-2,-9.590584040E-2
1.101565148E1,5.784893632E-1,2.733621933E-2,-1.101084575E-1
1.102565148E1,5.578727126E-1,1.264491081E-1,-1.243110746E-1
1.103565148E1,5.256495476E-1,1.542434692E-1,-1.117883399E-1
1.104565148E1,4.775438905E-1,1.705841124E-1,-7.009678334E-2
1.105565148E1,4.192062616E-1,1.168279797E-1,4.581489484E-4
1.106565148E1,3.422372639E-1,-2.428189293E-2,9.865473956E-2
1.107565148E1,2.805398703E-1,-1.050688252E-1,1.692096740E-1
1.108565148E1,2.173153162E-1,-1.527163088E-1,2.472477108E-1
1.109565148E1,2.003637999E-1,-1.643227488E-1,3.032945991E-1
1.110565148E1,2.609921694E-1,-1.000291854E-1,3.194825351E-1
1.111565148E1,3.352122903E-1,-3.787364438E-2,3.184134960E-1
1.112565148E1,4.219551682E-1,3.665191587E-3,3.086396754E-1
1.113565148E1,4.471533597E-1,5.054909736E-2,2.979495227E-1
1.114565148E1,3.842342496E-1,1.896736622E-1,2.976440787E-1
1.115565148E1,2.935207486E-1,2.976440787E-1,3.214678466E-1
1.116565148E1,2.231185287E-1,3.359758854E-1,3.327688277E-1
1.117565148E1,1.715004146E-1,3.402519524E-1,3.451388776E-1
1.118565148E1,1.692096740E-1,3.205515444E-1,3.596469164E-1
1.119565148E1,2.029599845E-1,2.755002379E-1,3.678936064E-1
1.120565148E1,2.426662147E-1,2.367102802E-1,3.700316250E-1
1.121565148E1,3.010038435E-1,1.797471046E-1,3.697261810E-1
1.122565148E1,3.222314119E-1,1.369865239E-1,3.718642294E-1
1.123565148E1,2.869539559E-1,1.133155003E-1,3.657555580E-1
1.124565148E1,2.028072625E-1,5.849034712E-2,3.582724631E-1
1.125565148E1,1.246165112E-1,1.725694351E-2,3.397938013E-1
1.126565148E1,2.962696366E-2,5.711590126E-2,2.767219543E-1
1.127565148E1,-9.162978828E-2,1.324050426E-1,1.443169117E-1
1.128565148E1,-2.127338201E-1,1.968513280E-1,7.635815418E-4
1.129565148E1,-3.040581644E-1,2.406809032E-1,-1.148426682E-1
1.130565148E1,-4.789183438E-1,2.776382565E-1,-2.877175212E-1
1.131565148E1,-6.745479703E-1,3.058907688E-1,-4.410447180E-1
1.132565148E1,-8.504771590E-1,3.291036487E-1,-5.638286471E-1
1.133565148E1,-9.647089243E-1,3.283400834E-1,-6.553056836E-1
1.134565148E1,-1.100626469E0,4.008803070E-1,-7.486153841E-1
1.135565148E1,-1.314581990E0,5.412266254E-1,-8.365799785E-1
1.136565148E1,-1.561829686E0,6.849326491E-1,-9.453139901E-1
1.137565148E1,-1.823585510E0,8.187121153E-1,-1.047939301E0
1.138565148E1,-2.084424973E0,9.804387093E-1,-1.100321054E0
1.139565148E1,-2.404670954E0,1.173319459E0,-1.142623425E0
1.140565148E1,-2.638174295E0,1.197906733E0,-1.202030063E0
1.141565148E1,-2.710561752E0,1.068708777E0,-1.256244421E0
1.142565148E1,-2.616641283E0,1.012203693E0,-1.255480766E0
1.143565148E1,-2.284330606E0,7.211264372E-1,-1.156367898E0
1.144565148E1,-1.803121448E0,4.008803070E-1,-1.038012743E0
1.145565148E1,-1.317025423E0,8.124507964E-2,-7.854200006E-1
1.146565148E1,-1.062752843E0,-3.740022480E-1,-6.551529765E-1
1.147565148E1,-9.590584636E-1,-5.302310586E-1,-5.719226003E-1
1.148565148E1,-8.486445546E-1,-2.906191349E-1,-4.598288238E-1
1.149565148E1,-6.960809231E-1,1.320996135E-1,-5.468770862E-1
1.150565148E1,-6.765332818E-1,5.728389025E-1,-8.399397135E-1
1.151565148E1,-5.966626406E-1,1.004720569E0,-1.188132882E0
1.152565148E1,-4.967861474E-1,1.288314819E0,-1.488373160E0
1.153565148E1,-4.694499373E-1,1.023352027E0,-1.415374756E0
1.154565148E1,-3.601050675E-1,5.775730610E-1,-1.269072533E0
1.155565148E1,-1.797471046E-1,2.168571576E-2,-1.273501277E0
1.156565148E1,-9.071348608E-2,-4.812090993E-1,-1.271515965E0
1.157565148E1,-1.059851199E-1,-1.100168347E0,-1.114829063E0
1.158565148E1,1.084285788E-2,-1.452026725E0,-1.102306366E0
1.159565148E1,7.574728876E-2,-1.770592928E0,-9.917397499E-1
1.160565148E1,1.130100712E-1,-1.925141811E0,-9.036223888E-1
1.161565148E1,1.423316002E-1,-2.018756866E0,-7.649559975E-1
1.162565148E1,1.805106848E-1,-2.015549898E0,-6.062837839E-1
1.163565148E1,2.211332172E-1,-1.899638176E0,-4.421137273E-1
1.164565148E1,2.745839357E-1,-1.731802940E0,-3.083342314E-1
1.165565148E1,3.532328308E-1,-1.500132322E0,-1.411098689E-1
1.166565148E1,4.124867618E-1,-1.289536476E0,3.451388702E-2
1.167565148E1,4.416555762E-1,-1.141859889E0,2.049452960E-1
1.168565148E1,4.555527568E-1,-1.051757216E0,3.408628106E-1
1.169565148E1,4.648684561E-1,-9.993755221E-1,4.167627990E-1
1.170565148E1,4.758640230E-1,-1.000902653E0,4.925101101E-1
1.171565148E1,4.816672504E-1,-1.074817419E0,5.580254197E-1
1.172565148E1,4.923573732E-1,-1.150870085E0,6.088799238E-1
1.173565148E1,4.491386712E-1,-1.239598274E0,6.035348773E-1
1.174565148E1,3.194825351E-1,-1.290910959E0,5.131267905E-1
1.175565148E1,1.889100820E-1,-1.151328325E0,3.115412891E-1
1.176565148E1,5.940664560E-2,-8.901833892E-1,3.237585723E-2
1.177565148E1,2.015855350E-2,-4.576907754E-1,-2.119702399E-1
1.178565148E1,3.359758761E-3,-1.554652005E-1,-3.543018401E-1
1.179565148E1,3.298672289E-2,4.535674304E-2,-4.644103050E-1
1.180565148E1,9.590584040E-2,1.786780916E-2,-4.706716835E-1
1.181565148E1,1.123992056E-1,-1.417207420E-1,-3.972151279E-1
1.182565148E1,8.872817457E-2,-3.313944042E-1,-3.028364480E-1
1.183565148E1,2.138028294E-2,-5.668829679E-1,-1.930334121E-1
1.184565148E1,-3.741549700E-2,-7.985535860E-1,-9.285151958E-2
1.185565148E1,1.175915636E-2,-1.027780771E0,7.177666761E-3
1.186565148E1,1.151480973E-1,-1.149801135E0,1.015563458E-1
1.187565148E1,2.887865305E-1,-1.191492677E0,2.316706479E-1
1.188565148E1,4.411974251E-1,-1.087645531E0,3.700316250E-1
1.189565148E1,5.490151644E-1,-8.260425329E-1,5.067127347E-1
1.190565148E1,6.140722632E-1,-4.889976382E-1,6.365215778E-1
1.191565148E1,6.730207801E-1,-2.606867552E-1,7.157813311E-1
1.192565148E1,7.460191846E-1,-8.475755155E-2,7.472409010E-1
1.193565148E1,7.199047208E-1,5.864306539E-2,7.162395120E-1
1.194565148E1,5.516113043E-1,1.773036420E-1,6.499606371E-1
1.195565148E1,4.043927789E-1,1.721112877E-1,6.075055003E-1
1.196565148E1,2.338086665E-1,4.902193695E-2,5.913175344E-1
1.197565148E1,9.300423414E-2,-2.162462920E-1,6.072000265E-1
1.198565148E1,-5.955935922E-3,-5.988006592E-1,6.310238242E-1
1.199565148E1,-3.436116874E-2,-1.028238893E0,6.495024562E-1
1.200565148E1,-5.589416996E-2,-1.423316002E0,6.644686460E-1
1.201565148E1,-1.133155003E-1,-1.903303385E0,6.669121385E-1
1.202565148E1,-1.806633919E-1,-2.368782759E0,6.620252132E-1
1.203565148E1,-2.469422817E-1,-2.938109159E0,6.322455406E-1
1.204565148E1,-1.690569520E-1,-3.099988461E0,5.702427030E-1
1.205565148E1,1.389718428E-2,-3.121521473E0,4.013384581E-1
1.206565148E1,2.593123019E-1,-2.882978439E0,3.094032407E-1
1.207565148E1,5.317581892E-1,-2.421164513E0,2.784018219E-1
1.208565148E1,7.693848014E-1,-1.921629310E0,1.951714456E-1
1.209565148E1,1.084896684E0,-1.367116451E0,9.392052889E-2
1.210565148E1,1.388649464E0,-9.592111707E-1,9.926560521E-2
1.211565148E1,1.613753319E0,-7.593054771E-1,9.254608303E-2
1.212565148E1,1.689958692E0,-6.650795341E-1,7.345654815E-2
1.213565148E1,1.621847272E0,-7.223481536E-1,8.185594529E-2
1.214565148E1,1.409876943E0,-8.791878223E-1,8.979719132E-2
1.215565148E1,1.111774802E0,-1.008996725E0,1.250746548E-1
1.216565148E1,7.900014520E-1,-1.112232924E0,1.983784884E-1
1.217565148E1,5.775730610E-1,-1.216538191E0,2.408336252E-1
1.218565148E1,3.706424832E-1,-1.386969566E0,2.561052442E-1
1.219565148E1,1.867720485E-1,-1.523803353E0,2.509129047E-1
1.220565148E1,1.954768784E-2,-1.498605132E0,2.379320115E-1
1.221565148E1,-9.728029370E-2,-1.372308731E0,2.203696370E-1
1.222565148E1,-1.185078546E-1,-1.232726097E0,2.078468949E-1
1.223565148E1,-6.551529467E-2,-1.127657294E0,1.692096740E-1
1.224565148E1,5.543602258E-2,-1.079551578E0,1.398881376E-1
1.225565148E1,1.889100820E-1,-1.042594314E0,1.337794960E-1
1.226565148E1,2.791654170E-1,-9.925032854E-1,1.400408596E-1
1.227565148E1,3.851505518E-1,-9.118691087E-1,1.658499092E-1
1.228565148E1,4.654793143E-1,-8.437576294E-1,2.064724565E-1
1.229565148E1,4.980078936E-1,-7.835873961E-1,2.664899528E-1
1.230565148E1,5.012149215E-1,-7.434229851E-1,3.118467033E-1
1.231565148E1,4.601342380E-1,-6.791294217E-1,3.611740768E-1
1.232565148E1,3.617849350E-1,-6.644686460E-1,4.004221559E-1
1.233565148E1,2.107485086E-1,-6.675229669E-1,4.202753007E-1
1.234565148E1,5.161811411E-2,-6.042984724E-1,4.172209501E-1
1.235565148E1,-4.856378585E-2,-5.378668308E-1,4.042400718E-1
1.236565148E1,-7.849618047E-2,-4.938845634E-1,3.813326359E-1
1.237565148E1,3.054326167E-3,-5.369505286E-1,3.407101035E-1
1.238565148E1,1.360702366E-1,-5.806274414E-1,2.926044464E-1
1.239565148E1,2.254092693E-1,-5.623014569E-1,2.828305960E-1
1.240565148E1,3.100140989E-1,-5.455026627E-1,2.742784917E-1
1.241565148E1,3.721696436E-1,-5.006040931E-1,2.791654170E-1
1.242565148E1,3.759875596E-1,-5.117523670E-1,3.084869385E-1
1.243565148E1,2.796235681E-1,-5.694791079E-1,3.486513495E-1
1.244565148E1,1.482875347E-1,-6.801984310E-1,3.616322279E-1
1.245565148E1,-5.009094998E-2,-8.501716852E-1,3.428481221E-1
1.246565148E1,-2.076941878E-1,-9.311113358E-1,2.547308207E-1
1.247565148E1,-2.822197378E-1,-8.552113175E-1,1.209513173E-1
1.248565148E1,-3.275764883E-1,-7.533495426E-1,7.635815418E-4
1.249565148E1,-3.840815127E-1,-6.511823535E-1,-1.585195363E-1
1.250565148E1,-4.789183438E-1,-6.293439269E-1,-3.084869385E-1
1.251565148E1,-6.508769393E-1,-6.368269920E-1,-4.265366495E-1
1.252565148E1,-8.182539940E-1,-6.039929986E-1,-4.798346460E-1
1.253565148E1,-1.055727839E0,-5.598580241E-1,-5.097670555E-1
1.254565148E1,-1.362840414E0,-5.337435007E-1,-5.407684445E-1
1.255565148E1,-1.792431355E0,-4.376849532E-1,-5.957463384E-1
1.256565148E1,-2.237293959E0,-2.974913716E-1,-6.783658266E-1
1.257565148E1,-2.538297892E0,-1.754710376E-1,-7.235698700E-1
1.258565148E1,-2.775313616E0,-5.299255997E-2,-7.249443531E-1
1.259565148E1,-2.837774515E0,4.780020565E-2,-6.827946305E-1
1.260565148E1,-2.721862793E0,1.151480973E-1,-6.692028642E-1
1.261565148E1,-2.575102329E0,-6.459899992E-2,-6.814202070E-1
1.262565148E1,-2.381305456E0,-7.266241908E-1,-7.244861722E-1
1.263565148E1,-2.058005095E0,-1.320843339E0,-8.136724830E-1
1.264565148E1,-1.797929168E0,-1.875661731E0,-8.365799785E-1
1.265565148E1,-1.644907355E0,-2.519513607E0,-9.294314981E-1
1.266565148E1,-1.552361250E0,-2.788905382E0,-1.027475357E0
1.267565148E1,-1.270294309E0,-2.890614271E0,-1.336115003E0
1.268565148E1,-9.993755221E-1,-2.520582676E0,-1.441947460E0
1.269565148E1,-7.875580192E-1,-2.459343433E0,-1.443321824E0
1.270565148E1,-5.755877495E-1,-2.426967621E0,-1.544725537E0
1.271565148E1,-3.037527502E-1,-2.041206121E0,-1.798387289E0
1.272565148E1,-7.391469181E-2,-1.724167109E0,-1.910633802E0
1.273565148E1,1.311833113E-1,-1.512044191E0,-1.953699827E0
1.274565148E1,2.564106882E-1,-1.511738777E0,-1.979508877E0
1.275565148E1,5.076290369E-1,-1.474017859E0,-2.105499744E0
1.276565148E1,6.846272349E-1,-1.722181797E0,-2.076636314E0
1.277565148E1,8.145887852E-1,-2.267226458E0,-2.145664215E0
1.278565148E1,8.555167913E-1,-2.984840393E0,-2.213164806E0
1.279565148E1,8.570439219E-1,-3.464827776E0,-2.078927040E0
1.280565148E1,8.367326856E-1,-3.736815453E0,-1.938733578E0
1.281565148E1,7.739662528E-1,-3.930917740E0,-1.774868965E0
1.282565148E1,8.184067011E-1,-3.831957579E0,-1.637729764E0
1.283565148E1,8.544477820E-1,-3.752697945E0,-1.492038369E0
1.284565148E1,9.790642858E-1,-3.568063974E0,-1.375363111E0
1.285565148E1,1.001971722E0,-3.515071392E0,-1.139416456E0
1.286565148E1,9.824240208E-1,-3.412140608E0,-9.497427344E-1
1.287565148E1,9.321803451E-1,-3.287371397E0,-7.816020846E-1
1.288565148E1,8.746063113E-1,-3.187036753E0,-6.577491760E-1
1.289565148E1,7.803803682E-1,-3.085938454E0,-5.007568002E-1
1.290565148E1,6.814202070E-1,-3.013092756E0,-3.475823104E-1
1.291565148E1,6.062837839E-1,-2.975524664E0,-2.008219510E-1
1.292565148E1,5.555819273E-1,-2.942385197E0,-9.682214260E-2
1.293565148E1,4.998404980E-1,-2.887254477E0,2.687807009E-2
1.294565148E1,4.436408877E-1,-2.798984528E0,1.313360333E-1
1.295565148E1,3.723223805E-1,-2.661692619E0,2.200642079E-1
1.296565148E1,2.922990322E-1,-2.534174442E0,2.770273983E-1
1.297565148E1,1.913535446E-1,-2.394438982E0,3.109304011E-1
1.298565148E1,1.220203340E-1,-2.342668295E0,3.320052624E-1
1.299565148E1,1.024726480E-1,-2.344042778E0,3.199406862E-1
1.300565148E1,6.291911751E-2,-2.333199739E0,2.675589919E-1
1.301565148E1,8.857546374E-3,-2.333352566E0,1.821905524E-1
1.302565148E1,-4.856378585E-2,-2.358856201E0,4.657847434E-2
1.303565148E1,-7.651086897E-2,-2.404823780E0,-1.220203340E-1
1.304565148E1,-7.009678334E-2,-2.430785418E0,-2.919935882E-1
1.305565148E1,-4.978551716E-2,-2.390926600E0,-3.808744848E-1
1.306565148E1,-3.924809024E-2,-2.229963541E0,-4.202753007E-1
1.307565148E1,-2.351831272E-2,-1.988213658E0,-4.105014503E-1
1.308565148E1,-1.924225502E-2,-1.690569520E0,-3.625485301E-1
1.309565148E1,-8.552113548E-3,-1.426217675E0,-2.780964077E-1
1.310565148E1,2.061670274E-2,-1.286634922E0,-1.846340150E-1
1.311565148E1,6.230825558E-2,-1.164309144E0,-4.245513305E-2
1.312565148E1,1.178969890E-1,-1.072526693E0,9.834930301E-2
1.313565148E1,1.760819107E-1,-9.964739084E-1,1.963931769E-1
1.314565148E1,2.357939780E-1,-9.508117437E-1,2.599231601E-1
1.315565148E1,3.094032407E-1,-9.442449808E-1,3.257438838E-1
1.316565148E1,3.341432810E-1,-9.553932548E-1,4.037819207E-1
1.317565148E1,3.187189400E-1,-9.902125597E-1,4.732678533E-1
1.318565148E1,2.959642112E-1,-1.042136073E0,5.035057068E-1
1.319565148E1,2.719877362E-1,-1.100015640E0,5.068654418E-1
1.320565148E1,2.347249687E-1,-1.177595496E0,4.882340431E-1
1.321565148E1,1.711949855E-1,-1.322828650E0,4.473060668E-1
1.322565148E1,9.605856240E-2,-1.528079391E0,3.987422884E-1
1.323565148E1,5.879577994E-2,-1.709811807E0,3.746131063E-1
1.324565148E1,4.795292020E-2,-1.964695334E0,3.439171314E-1
1.325565148E1,5.192354694E-2,-2.220800638E0,3.168863356E-1
1.326565148E1,4.444044828E-2,-2.431549072E0,2.828305960E-1
1.327565148E1,1.466076635E-2,-2.631454706E0,2.415972054E-1
1.328565148E1,-2.000583708E-2,-2.948951960E0,1.727221459E-1
1.329565148E1,-4.596760869E-2,-3.280040979E0,1.258382350E-1
1.330565148E1,-6.490442902E-2,-3.568216562E0,1.084285825E-1
1.331565148E1,2.290744567E-3,-3.541491270E0,4.993823543E-2
1.332565148E1,9.147707373E-2,-3.275154114E0,-3.665191308E-2
1.333565148E1,2.278527319E-1,-2.726138830E0,-1.695151031E-1
1.334565148E1,3.564398587E-1,-2.138333797E0,-2.434297949E-1
1.335565148E1,4.819726646E-1,-1.718669415E0,-2.719877362E-1
1.336565148E1,5.784893632E-1,-1.561829686E0,-2.871066630E-1
1.337565148E1,6.814202070E-1,-1.545947194E0,-2.933680415E-1
1.338565148E1,7.115052938E-1,-1.600619674E0,-3.229950070E-1
1.339565148E1,6.739370823E-1,-1.646129131E0,-3.744603992E-1
1.340565148E1,6.459900141E-1,-1.681712031E0,-4.039346576E-1
1.341565148E1,6.707300544E-1,-1.699732542E0,-4.297437072E-1
1.342565148E1,7.295258045E-1,-1.577559471E0,-4.560109079E-1
1.343565148E1,7.660250068E-1,-1.427744746E0,-4.271475375E-1
1.344565148E1,7.560984492E-1,-1.295797944E0,-3.605632186E-1
1.345565148E1,6.956228018E-1,-1.262505770E0,-3.003929853E-1
1.346565148E1,5.488623977E-1,-1.316109180E0,-2.199114859E-1
1.347565148E1,3.611740768E-1,-1.437518597E0,-1.469130963E-1
1.348565148E1,2.101376504E-1,-1.543656468E0,-1.069014147E-1
1.349565148E1,1.368338168E-1,-1.583820820E0,-7.528914511E-2
1.350565148E1,7.040221989E-2,-1.557859063E0,-2.382374369E-2
1.351565148E1,2.183843218E-2,-1.502270341E0,3.390302137E-2
1.352565148E1,-9.773843922E-3,-1.410946012E0,7.116580009E-2
1.353565148E1,-3.176499158E-2,-1.303433776E0,8.643743396E-2
1.354565148E1,-3.283400834E-2,-1.209055066E0,8.689557761E-2
1.355565148E1,-5.955935922E-3,-1.077566266E0,9.239336848E-2
1.356565148E1,3.711006418E-2,-9.816604257E-1,1.185078546E-1
1.357565148E1,9.193521738E-2,-9.332493544E-1,1.443169117E-1
1.358565148E1,1.299615800E-1,-9.367618561E-1,1.722639948E-1
1.359565148E1,1.592831165E-1,-9.108000994E-1,2.017382532E-1
1.360565148E1,1.637118906E-1,-8.765916228E-1,2.287690341E-1
1.361565148E1,1.522581577E-1,-8.362745047E-1,2.386955917E-1
1.362565148E1,1.324050426E-1,-8.060367107E-1,2.573269904E-1
1.363565148E1,1.162171140E-1,-7.904596329E-1,2.817615867E-1
1.364565148E1,1.449277848E-1,-8.329147696E-1,2.777909636E-1
1.365565148E1,2.422080636E-1,-8.671231866E-1,2.249511331E-1
1.366565148E1,4.031710625E-1,-7.680103183E-1,1.348485053E-1
1.367565148E1,5.261076689E-1,-6.682865620E-1,7.666359097E-2
1.368565148E1,6.046038866E-1,-5.505422950E-1,1.970040426E-2
1.369565148E1,5.734497309E-1,-3.950771093E-1,-1.847867295E-2
1.370565148E1,4.349360466E-1,-3.058907688E-1,-1.282817032E-2
1.371565148E1,2.521346211E-1,-3.130684495E-1,4.612032697E-2
1.372565148E1,-6.551529467E-2,-3.404046595E-1,1.295034289E-1
1.373565148E1,-4.030183554E-1,-4.631885588E-1,1.550070494E-1
1.374565148E1,-6.850853562E-1,-6.157521605E-1,1.241583601E-1
1.375565148E1,-8.429940343E-1,-6.695083380E-1,7.024950348E-3
1.376565148E1,-9.060658813E-1,-6.348416805E-1,-1.710422635E-1
1.377565148E1,-9.729556441E-1,-5.810855627E-1,-2.913827300E-1
1.378565148E1,-1.036332846E0,-5.186246037E-1,-3.849978149E-1
1.379565148E1,-1.069930434E0,-4.877758920E-1,-4.946481287E-1
1.380565148E1,-1.085049391E0,-4.593706727E-1,-5.749769211E-1
1.381565148E1,-1.129642606E0,-4.337143302E-1,-6.493497491E-1
1.382565148E1,-1.231351614E0,-4.502076805E-1,-7.347181439E-1
1.383565148E1,-1.352608323E0,-4.865541756E-1,-8.359690905E-1
1.384565148E1,-1.497077942E0,-4.080579877E-1,-9.121745229E-1
1.385565148E1,-1.793500304E0,-2.611449063E-1,-1.021977544E0
1.386565148E1,-2.100307465E0,-1.600466967E-1,-1.089325428E0
1.387565148E1,-2.282497883E0,-2.283108830E-1,-1.078329921E0
1.388565148E1,-2.301892996E0,-3.671300113E-1,-1.059545755E0
1.389565148E1,-2.193006277E0,-5.534439087E-1,-1.081536889E0
1.390565148E1,-1.991115212E0,-9.341656566E-1,-9.764680862E-1
1.391565148E1,-1.740355134E0,-1.421636105E0,-1.002735257E0
1.392565148E1,-1.373530507E0,-1.625359654E0,-1.133765936E0
1.393565148E1,-1.145677805E0,-1.464702129E0,-1.130864263E0
1.394565148E1,-8.506298661E-1,-1.630704761E0,-1.322828650E0
1.395565148E1,-6.632469296E-1,-1.370323420E0,-1.470658064E0
1.396565148E1,-4.831944108E-1,-9.859365225E-1,-1.448056102E0
1.397565148E1,-2.273945808E-1,-9.071348906E-1,-1.439656615E0
1.398565148E1,-3.207042580E-3,-9.841039181E-1,-1.484402537E0
1.399565148E1,2.041817009E-1,-9.821186066E-1,-1.649488926E0
1.400565148E1,3.584251702E-1,-9.535606503E-1,-1.840078831E0
1.401565148E1,5.178610086E-1,-9.505063295E-1,-2.081981421E0
1.402565148E1,6.084218025E-1,-9.193521738E-1,-2.198045969E0
1.403565148E1,6.565274000E-1,-1.167058110E0,-2.106568813E0
1.404565148E1,7.629706860E-1,-1.577254057E0,-1.972331166E0
1.405565148E1,7.980954647E-1,-2.093435287E0,-1.900554538E0
1.406565148E1,8.703302741E-1,-2.301129341E0,-1.887268186E0
1.407565148E1,9.224064946E-1,-2.346486092E0,-1.786170006E0
1.408565148E1,9.237809777E-1,-2.342515469E0,-1.617723942E0
1.409565148E1,9.682214260E-1,-2.248442173E0,-1.465923905E0
1.410565148E1,1.048092008E0,-2.122145891E0,-1.309084177E0
1.411565148E1,1.093448758E0,-2.002263546E0,-1.174235702E0
1.412565148E1,1.119257808E0,-1.881617665E0,-1.008843899E0
1.413565148E1,1.135598540E0,-1.790446043E0,-8.374962807E-1
1.414565148E1,1.105818868E0,-1.750128984E0,-6.479753256E-1
1.415565148E1,1.040914416E0,-1.759139180E0,-4.807509482E-1
1.416565148E1,9.237809777E-1,-1.810604572E0,-2.756529450E-1
1.417565148E1,7.962628603E-1,-1.816713214E0,-8.139779419E-2
1.418565148E1,6.873761415E-1,-1.731955647E0,8.536841720E-2
1.419565148E1,5.745187402E-1,-1.499826908E0,2.368630022E-1
1.420565148E1,4.908302128E-1,-1.251204729E0,3.262020350E-1
1.421565148E1,4.228714705E-1,-9.876163602E-1,4.120286107E-1
1.422565148E1,3.669773042E-1,-8.093964458E-1,4.607451260E-1
1.423565148E1,3.123048544E-1,-7.402159572E-1,4.636467099E-1
1.424565148E1,2.725986242E-1,-7.134906054E-1,4.418082833E-1
1.425565148E1,2.449569702E-1,-6.537785530E-1,4.300491214E-1
1.426565148E1,2.109012306E-1,-5.743660331E-1,4.097378552E-1
1.427565148E1,1.687515229E-1,-4.211915731E-1,3.495676219E-1
1.428565148E1,1.488984078E-1,-2.910772860E-1,2.770273983E-1
1.429565148E1,1.291979998E-1,-1.791362315E-1,1.788308024E-1
1.430565148E1,1.404990107E-1,-2.081523389E-1,1.163698286E-1
1.431565148E1,1.942551434E-1,-2.991712391E-1,8.032877743E-2
1.432565148E1,2.866485119E-1,-3.336851299E-1,7.391469181E-2
1.433565148E1,3.620903790E-1,-2.594650090E-1,9.132435173E-2
1.434565148E1,4.312708676E-1,-7.009678334E-2,1.313360333E-1
1.435565148E1,4.798346460E-1,9.330966324E-2,1.699732542E-1
1.436565148E1,5.157229900E-1,1.805106848E-1,2.167044431E-1
1.437565148E1,5.239696503E-1,2.157881409E-1,2.693915665E-1
1.438565148E1,5.332853794E-1,2.669481039E-1,3.428481221E-1
1.439565148E1,5.506950021E-1,3.623957932E-1,4.239404798E-1
1.440565148E1,5.797111392E-1,4.161519408E-1,5.181664228E-1
1.441565148E1,6.273586154E-1,3.326161206E-1,6.287330389E-1
1.442565148E1,6.475171447E-1,1.646281779E-1,6.779077053E-1
1.443565148E1,6.520986557E-1,-2.061670274E-2,6.963863969E-1
1.444565148E1,6.382014751E-1,-1.052215397E-1,6.837109327E-1
1.445565148E1,5.925393105E-1,-8.704829961E-2,6.241515875E-1
1.446565148E1,5.598580241E-1,-2.214386500E-2,5.671883821E-1
1.447565148E1,5.366451144E-1,7.864890248E-2,4.932736754E-1
1.448565148E1,5.215262175E-1,1.142318025E-1,4.470006526E-1
1.449565148E1,4.989241958E-1,3.817907721E-2,4.100432992E-1
1.450565148E1,4.085161388E-1,-1.087340117E-1,4.143193662E-1
1.451565148E1,2.776382565E-1,-2.698497176E-1,4.576907754E-1
1.452565148E1,8.185594529E-2,-5.482515693E-1,5.334380865E-1
1.453565148E1,-6.627888232E-2,-8.052731156E-1,6.152940392E-1
1.454565148E1,-1.579086632E-1,-9.576839805E-1,7.110471725E-1
1.455565148E1,-1.553124934E-1,-8.501716852E-1,7.874053121E-1
1.456565148E1,-1.107193232E-1,-6.540839672E-1,8.761335015E-1
1.457565148E1,-3.481931984E-2,-4.132503271E-1,9.359982610E-1
1.458565148E1,8.781187981E-2,-1.728748679E-1,9.492846131E-1
1.459565148E1,1.835650057E-1,-5.894849449E-2,9.253081083E-1
1.460565148E1,2.751947939E-1,9.712757170E-2,8.271115422E-1
1.461565148E1,3.150537610E-1,1.421788931E-1,7.319692969E-1
1.462565148E1,3.788891733E-1,2.503020465E-1,6.055201888E-1
1.463565148E1,4.624249935E-1,3.452915847E-1,4.386012554E-1
1.464565148E1,5.334380865E-1,3.663664162E-1,3.226895630E-1
1.465565148E1,6.517932415E-1,3.132211566E-1,1.915062517E-1
1.466565148E1,7.626652718E-1,2.637410760E-1,5.925392732E-2
1.467565148E1,8.463537693E-1,2.515237629E-1,-5.650503561E-3
1.468565148E1,9.253081083E-1,3.260493279E-1,-1.634064503E-2
1.469565148E1,1.010676503E0,4.839579761E-1,-2.061670274E-2
1.470565148E1,1.082605958E0,6.527095437E-1,-3.329215571E-2
1.471565148E1,1.076497316E0,7.548767328E-1,-1.033889428E-1
1.472565148E1,1.016937971E0,6.992880106E-1,-1.476766765E-1
1.473565148E1,9.048441648E-1,6.099489331E-1,-1.685988009E-1
1.474565148E1,7.683157325E-1,5.273294449E-1,-1.383609772E-1
1.475565148E1,6.160575747E-1,4.137084782E-1,-7.024950534E-2
1.476565148E1,4.833471179E-1,3.210096955E-1,-2.290744567E-3
1.477565148E1,4.108068645E-1,3.274237812E-1,4.428773001E-2
1.478565148E1,3.758348525E-1,3.976732790E-1,1.204931661E-1
1.479565148E1,3.654501438E-1,4.560109079E-1,1.988366395E-1
1.480565148E1,3.636175394E-1,5.010622144E-1,2.504547536E-1
1.481565148E1,3.532328308E-1,5.619960427E-1,2.800817192E-1
1.482565148E1,3.364340365E-1,6.375905871E-1,3.294090927E-1
1.483565148E1,3.254384696E-1,6.334672570E-1,3.915646076E-1
1.484565148E1,2.977968156E-1,5.874996781E-1,4.439463317E-1
1.485565148E1,2.631302178E-1,5.035057068E-1,4.838052690E-1
1.486565148E1,2.480112910E-1,4.285219610E-1,4.918992519E-1
1.487565148E1,2.732094824E-1,3.602577746E-1,4.720461071E-1
1.488565148E1,3.362813294E-1,3.280346394E-1,4.277583957E-1
1.489565148E1,4.208861589E-1,3.342960179E-1,3.544545472E-1
1.490565148E1,4.720461071E-1,3.622430861E-1,2.861903608E-1
1.491565148E1,4.923573732E-1,4.094324410E-1,2.179261744E-1
1.492565148E1,4.589125216E-1,4.302018583E-1,1.791362315E-1
1.493565148E1,4.085161388E-1,4.332561791E-1,1.828014255E-1
1.494565148E1,3.733913898E-1,3.996585906E-1,2.046398520E-1
1.495565148E1,3.454442918E-1,3.660610020E-1,2.264782935E-1
1.496565148E1,2.952006161E-1,3.568980098E-1,2.461786866E-1
1.497565148E1,1.737911552E-1,3.492622077E-1,2.573269904E-1
1.498565148E1,1.359175146E-2,3.979786932E-1,2.211332172E-1
1.499565148E1,-9.834930301E-2,4.169155359E-1,1.324050426E-1
1.500565148E1,-2.290744632E-1,4.628831446E-1,-1.618792862E-2
1.501565148E1,-3.836233616E-1,5.432119370E-1,-2.156354338E-1
1.502565148E1,-5.403103232E-1,5.977316499E-1,-4.250094891E-1
1.503565148E1,-6.777549982E-1,5.896376967E-1,-5.627595782E-1
1.504565148E1,-8.239045143E-1,5.910121202E-1,-6.711881757E-1
1.505565148E1,-9.271407127E-1,5.928447247E-1,-7.502952218E-1
1.506565148E1,-1.086118460E0,6.455318332E-1,-8.327620625E-1
1.507565148E1,-1.357189894E0,7.238753438E-1,-9.344711304E-1
1.508565148E1,-1.579239368E0,8.113817573E-1,-1.015410781E0
1.509565148E1,-1.819462180E0,8.866708875E-1,-1.131780624E0
1.510565148E1,-2.119396925E0,1.019992232E0,-1.234405994E0
1.511565148E1,-2.411543369E0,1.117730737E0,-1.312596679E0
1.512565148E1,-2.585639954E0,1.101390004E0,-1.369865298E0
1.513565148E1,-2.675742388E0,1.032973170E0,-1.363909364E0
1.514565148E1,-2.550973177E0,9.590584636E-1,-1.280373573E0
1.515565148E1,-2.233170509E0,7.652614117E-1,-1.070694089E0
1.516565148E1,-1.764331579E0,4.543310404E-1,-8.863654733E-1
1.517565148E1,-1.270294309E0,1.982257664E-1,-8.043568134E-1
1.518565148E1,-8.329147696E-1,1.744020283E-1,-7.124215961E-1
1.519565148E1,-4.529565871E-1,4.576907754E-1,-6.273586154E-1
1.520565148E1,-2.144137025E-1,8.724682927E-1,-8.819366693E-1
1.521565148E1,-1.980730593E-1,1.374752283E0,-1.230893493E0
1.522565148E1,-2.064724565E-1,1.682780981E0,-1.536784291E0
1.523565148E1,-4.080579877E-1,1.358411551E0,-1.573588848E0
1.524565148E1,-5.479460955E-1,9.036223888E-1,-1.426828504E0
1.525565148E1,-5.427537560E-1,5.416847467E-1,-1.362993121E0
1.526565148E1,-5.923865438E-1,4.703662544E-2,-1.137125611E0
1.527565148E1,-5.221370459E-1,-6.620252132E-1,-1.149648428E0
1.528565148E1,-4.109596014E-1,-1.053284407E0,-1.114065528E0
1.529565148E1,-3.672827184E-1,-1.351081252E0,-1.035263896E0
1.530565148E1,-2.953533530E-1,-1.521207213E0,-9.618073106E-1
1.531565148E1,-2.145664245E-1,-1.714393258E0,-8.738427162E-1
1.532565148E1,-1.342376322E-1,-1.762193561E0,-7.325801253E-1
1.533565148E1,-6.780604273E-2,-1.645976424E0,-5.429064631E-1
1.534565148E1,-1.221730467E-2,-1.447597861E0,-3.953825235E-1
1.535565148E1,6.597344577E-2,-1.162171125E0,-2.084577680E-1
1.536565148E1,1.488984078E-1,-8.828529716E-1,-1.420261711E-2
1.537565148E1,2.251038402E-1,-6.501133442E-1,1.724167168E-1
1.538565148E1,2.825251818E-1,-5.007568002E-1,3.391829133E-1
1.539565148E1,3.263547719E-1,-4.531092942E-1,4.529565871E-1
1.540565148E1,3.866777122E-1,-4.604396820E-1,5.748242140E-1
1.541565148E1,4.586070776E-1,-5.227479339E-1,6.708827615E-1
1.542565148E1,5.369505286E-1,-6.056728959E-1,7.519751191E-1
1.543565148E1,5.916230083E-1,-6.740897894E-1,8.101600409E-1
1.544565148E1,6.323982477E-1,-8.014551997E-1,8.558222055E-1
1.545565148E1,6.126978397E-1,-9.169087410E-1,8.539896011E-1
1.546565148E1,5.264131427E-1,-8.807149529E-1,8.129089475E-1
1.547565148E1,4.147774875E-1,-6.742424965E-1,7.092145681E-1
1.548565148E1,2.443460971E-1,-2.493857294E-1,4.761694670E-1
1.549565148E1,8.093964309E-2,1.954768747E-1,1.870774776E-1
1.550565148E1,-2.580905706E-2,5.045747161E-1,-5.894849449E-2
1.551565148E1,-3.817907721E-2,5.138903856E-1,-2.176207453E-1
1.552565148E1,2.290744567E-3,3.897320330E-1,-2.890919745E-1
1.553565148E1,2.748893574E-2,2.159408629E-1,-3.011565804E-1
1.554565148E1,3.054326214E-2,5.253441259E-2,-2.360994220E-1
1.555565148E1,5.818491429E-2,-1.096503139E-1,-1.123992056E-1
1.556565148E1,7.803803682E-2,-2.241875380E-1,2.122756653E-2
1.557565148E1,9.773843735E-2,-3.316998184E-1,2.159408629E-1
1.558565148E1,1.348485053E-1,-3.530801237E-1,3.830125034E-1
1.559565148E1,1.991420686E-1,-3.862195611E-1,5.157229900E-1
1.560565148E1,3.022255898E-1,-3.662137091E-1,6.548475623E-1
1.561565148E1,3.758348525E-1,-2.509129047E-1,7.713701129E-1
1.562565148E1,3.697261810E-1,9.422596544E-2,8.634580374E-1
1.563565148E1,3.006984293E-1,4.564690590E-1,8.509352803E-1
1.564565148E1,2.489275932E-1,6.979135275E-1,7.582364678E-1
1.565565148E1,2.197587788E-1,7.790058851E-1,6.843217611E-1
1.566565148E1,2.118175179E-1,7.166976333E-1,6.327036619E-1
1.567565148E1,2.309070677E-1,5.389358401E-1,6.550002694E-1
1.568565148E1,2.631302178E-1,2.852740586E-1,7.145596147E-1
1.569565148E1,2.805398703E-1,5.467243865E-2,7.644978762E-1
1.570565148E1,2.464841306E-1,-3.092505336E-1,8.665123582E-1
1.571565148E1,1.139263660E-1,-7.599163651E-1,9.595165849E-1
1.572565148E1,-1.099557430E-2,-1.135293007E0,9.699012637E-1
1.573565148E1,-8.109235764E-2,-1.241125464E0,9.181304574E-1
1.574565148E1,-7.712173462E-2,-1.152549982E0,8.637634516E-1
1.575565148E1,1.175915636E-2,-9.818131924E-1,7.619016767E-1
1.576565148E1,1.750128865E-1,-7.489207983E-1,6.603453159E-1
1.577565148E1,3.492622077E-1,-5.199990273E-1,6.294966340E-1
1.578565148E1,5.067127347E-1,-3.246748745E-1,6.278167367E-1
1.579565148E1,7.276932001E-1,1.404990070E-2,5.853615999E-1
1.580565148E1,8.972083330E-1,4.549418986E-1,5.508477092E-1
1.581565148E1,9.863946438E-1,7.197519541E-1,5.056437254E-1
1.582565148E1,1.088867307E0,7.741189599E-1,4.312708676E-1
1.583565148E1,1.153924465E0,6.574437022E-1,3.659082949E-1
1.584565148E1,1.222035885E0,4.885394871E-1,2.306016237E-1
1.585565148E1,1.234711409E0,4.476115108E-1,1.131627858E-1
1.586565148E1,1.207222462E0,4.917465150E-1,6.459899992E-2
1.587565148E1,1.193325281E0,5.138903856E-1,3.787364438E-2
1.588565148E1,1.151786447E0,6.142250299E-1,-2.504547499E-2
1.589565148E1,1.056185961E0,6.982190013E-1,-9.758572280E-2
1.590565148E1,8.999572396E-1,6.192646623E-1,-1.026253626E-1
1.591565148E1,8.006916046E-1,6.047565937E-1,-1.221730486E-1
1.592565148E1,6.902777553E-1,5.888741016E-1,-1.171334088E-1
1.593565148E1,5.697845817E-1,5.001459122E-1,-7.712173462E-2
1.594565148E1,4.457789063E-1,3.892738819E-1,-9.162978269E-3
1.595565148E1,3.370448947E-1,3.385720551E-1,7.254024595E-2
1.596565148E1,2.793181241E-1,3.462078869E-1,1.411098689E-1
1.597565148E1,2.313652188E-1,3.575088978E-1,2.193006277E-1
1.598565148E1,2.118175179E-1,3.495676219E-1,2.950479090E-1
1.599565148E1,2.241875380E-1,3.468187451E-1,3.596469164E-1
1.600565148E1,2.388483137E-1,3.614795208E-1,4.086688459E-1
1.601565148E1,2.521346211E-1,3.820962012E-1,4.563163519E-1
1.602565148E1,2.486221492E-1,3.733913898E-1,4.879286289E-1
1.603565148E1,2.270891517E-1,3.129157126E-1,5.071708560E-1
1.604565148E1,1.873829067E-1,2.426662147E-1,4.850270152E-1
1.605565148E1,1.539380401E-1,1.627955884E-1,4.613559842E-1
1.606565148E1,1.241583601E-1,6.704246253E-2,4.169155359E-1
1.607565148E1,1.114829108E-1,-8.857546374E-3,3.726277947E-1
1.608565148E1,1.145372316E-1,-6.734789163E-2,3.222314119E-1
1.609565148E1,1.247692257E-1,-1.111774743E-1,2.915354371E-1
1.610565148E1,1.227839142E-1,-1.539380401E-1,2.582432926E-1
1.611565148E1,1.302670091E-1,-1.647808999E-1,2.472477108E-1
1.612565148E1,1.514945775E-1,-1.976149082E-1,2.422080636E-1
1.613565148E1,1.800525337E-1,-2.341141105E-1,2.382374406E-1
1.614565148E1,2.244929820E-1,-2.495384514E-1,2.270891517E-1
1.615565148E1,2.437352389E-1,-2.136501223E-1,2.247984111E-1
1.616565148E1,2.202169150E-1,-9.224065393E-2,1.632537395E-1
1.617565148E1,1.951714456E-1,6.490442902E-2,7.131851465E-2
1.618565148E1,1.580613852E-1,2.035708427E-1,-2.183843218E-2
1.619565148E1,3.375030309E-2,3.281873465E-1,-1.820378453E-1
1.620565148E1,-1.620320082E-1,3.758348525E-1,-3.353650272E-1
1.621565148E1,-4.024074674E-1,3.468187451E-1,-4.437935948E-1
1.622565148E1,-5.778785348E-1,3.219259977E-1,-5.155702829E-1
1.623565148E1,-7.254024744E-1,3.355177343E-1,-5.885686874E-1
1.624565148E1,-8.694139719E-1,3.672827184E-1,-6.479753256E-1
1.625565148E1,-1.085507512E0,4.793764949E-1,-7.275404930E-1
1.626565148E1,-1.355815411E0,7.185302377E-1,-8.295549750E-1
1.627565148E1,-1.626428723E0,9.758572578E-1,-9.130908251E-1
1.628565148E1,-2.056325197E0,1.325119376E0,-1.096045017E0
1.629565148E1,-2.424829483E0,1.329089999E0,-1.218676209E0
1.630565148E1,-2.574033499E0,1.050535560E0,-1.238223910E0
1.631565148E1,-2.511725187E0,7.434229851E-1,-1.222952247E0
1.632565148E1,-2.303267479E0,2.043344229E-1,-1.088256478E0
1.633565148E1,-1.978592515E0,-3.950771093E-1,-9.040805697E-1
1.634565148E1,-1.538922310E0,-6.165157557E-1,-7.851145267E-1
1.635565148E1,-1.168279767E0,-6.067419052E-1,-6.867652535E-1
1.636565148E1,-8.271115422E-1,-4.706716835E-1,-6.621779203E-1
1.637565148E1,-4.891503453E-1,-1.724167168E-1,-7.111998796E-1
1.638565148E1,-2.518292069E-1,3.561344445E-1,-9.443976879E-1
1.639565148E1,-1.563815027E-1,1.157131433E0,-1.267545342E0
1.640565148E1,-1.488984078E-1,1.472185254E0,-1.450194120E0
1.641565148E1,-2.220495194E-1,1.193325281E0,-1.519832730E0
1.642565148E1,-2.133446932E-1,7.382306457E-1,-1.449125051E0
1.643565148E1,-4.016438872E-2,3.895792961E-1,-1.446376204E0
1.644565148E1,7.360926270E-2,-2.015855350E-2,-1.388954878E0
1.645565148E1,1.884519309E-1,-5.232060552E-1,-1.331991673E0
1.646565148E1,2.516764700E-1,-1.032667756E0,-1.301906586E0
1.647565148E1,1.898263693E-1,-1.556026459E0,-1.228908181E0
1.648565148E1,1.699732542E-1,-1.867873192E0,-1.173166752E0
1.649565148E1,2.244929820E-1,-1.915520668E0,-1.101542711E0
1.650565148E1,2.539672256E-1,-1.896736622E0,-8.842274547E-1
1.651565148E1,2.791654170E-1,-1.827861547E0,-6.737843752E-1
1.652565148E1,3.211624026E-1,-1.725388885E0,-4.889976382E-1
1.653565148E1,3.541491330E-1,-1.599703312E0,-3.321579695E-1
1.654565148E1,4.092797041E-1,-1.348790407E0,-1.331686229E-1
1.655565148E1,4.321871698E-1,-1.068861485E0,5.879577994E-2
1.656565148E1,4.068362415E-1,-8.752171993E-1,2.441933751E-1
1.657565148E1,3.802636266E-1,-7.916813493E-1,3.594942093E-1
1.658565148E1,3.573561609E-1,-7.177666426E-1,4.709770977E-1
1.659565148E1,3.607159257E-1,-6.692028642E-1,5.737552047E-1
1.660565148E1,3.862195611E-1,-6.485861540E-1,6.568328738E-1
1.661565148E1,4.352414906E-1,-6.360634565E-1,7.142542005E-1
1.662565148E1,4.867068827E-1,-6.258314252E-1,7.397578359E-1
1.663565148E1,5.508477092E-1,-6.472117305E-1,7.371616364E-1
1.664565148E1,5.920811296E-1,-7.141014934E-1,7.208209634E-1
1.665565148E1,5.302310586E-1,-7.880161405E-1,6.753115058E-1
1.666565148E1,3.856086731E-1,-7.035640478E-1,6.235406995E-1
1.667565148E1,1.388191283E-1,-3.857614100E-1,5.170974135E-1
1.668565148E1,-6.704246253E-2,9.468411095E-3,2.643519342E-1
1.669565148E1,-1.061378345E-1,9.208793938E-2,-1.391245574E-1
1.670565148E1,-2.260201424E-2,5.115996301E-2,-5.400048494E-1
1.671565148E1,4.550946131E-2,-1.221730467E-2,-6.869179606E-1
1.672565148E1,1.638645977E-1,-4.291328415E-2,-6.592763066E-1
1.673565148E1,2.359467000E-1,1.139263660E-1,-5.047274232E-1
1.674565148E1,2.141082734E-1,3.292563558E-1,-2.483167201E-1
1.675565148E1,1.678352207E-1,4.097378552E-1,-3.054326214E-2
1.676565148E1,1.255328059E-1,3.744603992E-1,2.684752643E-1
1.677565148E1,1.711949855E-1,2.628247738E-1,5.937610269E-1
1.678565148E1,2.490803003E-1,1.088867337E-1,8.662069440E-1
1.679565148E1,3.346014321E-1,-6.276640296E-2,1.047023058E0
1.680565148E1,4.439463317E-1,-2.915354371E-1,1.160338521E0
1.681565148E1,5.064072609E-1,-3.911064863E-1,1.108567715E0
1.682565148E1,5.563455224E-1,-3.627012372E-1,9.596692920E-1
1.683565148E1,6.417139173E-1,-3.228422701E-1,7.887797356E-1
1.684565148E1,6.921103001E-1,-3.243694305E-1,7.191411257E-1
1.685565148E1,7.420485616E-1,-4.109596014E-1,7.637342811E-1
1.686565148E1,7.764097452E-1,-5.056437254E-1,8.584184051E-1
1.687565148E1,7.687739134E-1,-4.795292318E-1,9.952521920E-1
1.688565148E1,6.948592067E-1,-4.466952085E-1,1.123686671E0
1.689565148E1,5.467243791E-1,-4.821254015E-1,1.247081399E0
1.690565148E1,3.202461004E-1,-7.596109509E-1,1.307098866E0
1.691565148E1,5.558873713E-2,-1.155757070E0,1.262658477E0
1.692565148E1,-1.175915599E-1,-1.281595230E0,1.046259403E0
1.693565148E1,-2.058615834E-1,-1.194241524E0,8.222246170E-1
1.694565148E1,-2.626720667E-1,-1.057560444E0,6.105598211E-1
1.695565148E1,-1.774563491E-1,-8.927795291E-1,4.514294267E-1
1.696565148E1,-1.496619824E-2,-8.168795705E-1,3.758348525E-1
1.697565148E1,1.287398487E-1,-7.107416987E-1,3.187189400E-1
1.698565148E1,3.170390725E-1,-4.127921760E-1,2.309070677E-1
1.699565148E1,5.184718966E-1,1.191187184E-2,1.023199260E-1
1.700565148E1,6.163630486E-1,2.648100853E-1,2.779436857E-2
1.701565148E1,6.772968173E-1,4.276056588E-1,-4.230241850E-2
1.702565148E1,7.469354868E-1,6.814202070E-1,-1.130100712E-1
1.703565148E1,8.013024926E-1,7.544185519E-1,-1.420261711E-1
1.704565148E1,8.849910498E-1,7.383833528E-1,-1.802052408E-1
1.705565148E1,9.468411207E-1,6.974554062E-1,-1.780672222E-1
1.706565148E1,9.607383013E-1,6.508769393E-1,-1.673770845E-1
1.707565148E1,9.272934198E-1,6.826419234E-1,-1.915062517E-1
1.708565148E1,8.668177724E-1,7.050912380E-1,-1.779145002E-1
1.709565148E1,7.997753024E-1,5.497786999E-1,-1.638645977E-1
1.710565148E1,7.557930350E-1,4.218024611E-1,-1.522581577E-1
1.711565148E1,6.501133442E-1,2.083050460E-1,-1.056796908E-1
1.712565148E1,4.889976382E-1,5.039638374E-3,-3.084869497E-2
1.713565148E1,3.229950070E-1,-7.696902007E-2,4.596760869E-2
1.714565148E1,2.138028294E-1,3.787364438E-2,1.298088580E-1
1.715565148E1,1.446223408E-1,8.307767659E-2,2.351831198E-1
1.716565148E1,6.704246253E-2,1.050688252E-1,3.013092875E-1
1.717565148E1,1.145372353E-2,2.539672256E-1,3.242167234E-1
1.718565148E1,-1.038470957E-2,4.509712756E-1,3.497203588E-1
1.719565148E1,3.817907767E-3,5.083925724E-1,4.024074674E-1
1.720565148E1,3.222314268E-2,4.970915914E-1,4.975497425E-1
1.721565148E1,6.826419383E-2,4.602869749E-1,5.986479521E-1
1.722565148E1,1.168279797E-1,4.075998366E-1,6.788240075E-1
1.723565148E1,1.453859210E-1,3.819434941E-1,7.214318514E-1
1.724565148E1,1.766927689E-1,3.281873465E-1,7.502952218E-1
1.725565148E1,2.049452960E-1,2.107485086E-1,7.594582438E-1
1.726565148E1,2.481640130E-1,7.895433158E-2,7.330383062E-1
1.727565148E1,3.152064681E-1,5.192354787E-3,6.837109327E-1
1.728565148E1,3.845396638E-1,-5.375614017E-2,6.197227836E-1
1.729565148E1,4.616613984E-1,-1.540907621E-1,5.299255848E-1
1.730565148E1,5.152648091E-1,-2.339613885E-1,4.317290187E-1
1.731565148E1,5.326744914E-1,-2.600758672E-1,3.291036487E-1
1.732565148E1,5.213735104E-1,-2.438879460E-1,2.461786866E-1
1.733565148E1,4.923573732E-1,-1.774563491E-1,1.501201391E-1
1.734565148E1,4.460843503E-1,-1.015563458E-1,7.864890248E-2
1.735565148E1,3.703370690E-1,-3.100141138E-2,2.290744707E-2
1.736565148E1,2.528982162E-1,4.260785133E-2,-2.138028387E-3
1.737565148E1,1.849394590E-1,8.857546002E-2,-2.977968007E-2
1.738565148E1,1.438587606E-1,1.386664063E-1,-7.712173462E-2
1.739565148E1,5.375614017E-2,1.724167168E-1,-1.475239545E-1
1.740565148E1,-9.071348608E-2,2.388483137E-1,-2.495384514E-1
1.741565148E1,-2.364048511E-1,3.075706363E-1,-3.220787048E-1
1.742565148E1,-4.740314186E-1,3.691153228E-1,-4.080579877E-1
1.743565148E1,-7.289149761E-1,4.343251884E-1,-5.195409060E-1
1.744565148E1,-9.555459619E-1,4.802927971E-1,-6.362161636E-1
1.745565148E1,-1.114065528E0,4.960225821E-1,-7.078400850E-1
1.746565148E1,-1.339169383E0,5.332853794E-1,-8.013024926E-1
1.747565148E1,-1.643991113E0,6.594290137E-1,-9.269880056E-1
1.748565148E1,-1.945453048E0,9.411906004E-1,-1.049466491E0
1.749565148E1,-2.256230831E0,1.292590857E0,-1.148426652E0
1.750565148E1,-2.494162798E0,1.367421865E0,-1.203709960E0
1.751565148E1,-2.649933338E0,1.237307549E0,-1.253037333E0
1.752565148E1,-2.594039202E0,1.067639709E0,-1.262505770E0
1.753565148E1,-2.316553831E0,9.615018964E-1,-1.244027019E0
1.754565148E1,-2.031890631E0,8.732318878E-1,-1.142470717E0
1.755565148E1,-1.771967411E0,3.524692357E-1,-8.894197941E-1
1.756565148E1,-1.387427688E0,-2.380847335E-1,-8.480336666E-1
1.757565148E1,-1.005331516E0,-3.604104817E-1,-8.029823899E-1
1.758565148E1,-6.789767146E-1,-3.371976018E-1,-8.034405112E-1
1.759565148E1,-3.631593883E-1,-2.652682364E-1,-9.610437751E-1
1.760565148E1,-1.322523206E-1,4.535674304E-2,-1.241736293E0
1.761565148E1,-4.657847434E-2,3.982841372E-1,-1.484249830E0
1.762565148E1,-5.451972410E-2,4.560109079E-1,-1.524108768E0
1.763565148E1,-6.627888232E-2,2.973386645E-1,-1.459051609E0
1.764565148E1,-3.527746722E-2,3.741549700E-2,-1.392161846E0
1.765565148E1,-2.168571576E-2,-3.023782969E-1,-1.330464482E0
1.766565148E1,1.389718503E-1,-6.279694438E-1,-1.319163442E0
1.767565148E1,1.843285859E-1,-1.072679400E0,-1.288620234E0
1.768565148E1,2.892446816E-1,-1.685682654E0,-1.294576168E0
1.769565148E1,3.610213697E-1,-2.184148788E0,-1.252121091E0
1.770565148E1,4.010330439E-1,-2.589915991E0,-1.170112371E0
1.771565148E1,4.260784984E-1,-2.731331110E0,-1.036638379E0
1.772565148E1,4.211915731E-1,-2.730873108E0,-9.109528065E-1
1.773565148E1,4.508185387E-1,-2.614045143E0,-7.089090943E-1
1.774565148E1,5.384777188E-1,-2.431549072E0,-5.114469528E-1
1.775565148E1,6.491970420E-1,-2.203238249E0,-3.237585723E-1
1.776565148E1,7.319692969E-1,-2.019215107E0,-1.824959964E-1
1.777565148E1,7.609853745E-1,-1.855655909E0,-1.557706390E-2
1.778565148E1,7.571674585E-1,-1.719127536E0,1.194241568E-1
1.779565148E1,7.105889916E-1,-1.604895711E0,2.299907655E-1
1.780565148E1,6.554583907E-1,-1.503033876E0,3.161227703E-1
1.781565148E1,6.093381047E-1,-1.427897453E0,3.813326359E-1
1.782565148E1,5.415320396E-1,-1.408349872E0,4.731151462E-1
1.783565148E1,5.074763298E-1,-1.427592039E0,5.621487498E-1
1.784565148E1,4.963280261E-1,-1.523650646E0,5.994115472E-1
1.785565148E1,5.039638281E-1,-1.560302496E0,5.919284225E-1
1.786565148E1,4.821254015E-1,-1.472032547E0,5.546656251E-1
1.787565148E1,3.486513495E-1,-1.282969713E0,4.642575979E-1
1.788565148E1,1.734857261E-1,-9.837985039E-1,3.416263759E-1
1.789565148E1,3.039054573E-2,-7.014260292E-1,1.945605874E-1
1.790565148E1,-8.353582025E-2,-2.953533530E-1,-6.322455406E-2
1.791565148E1,-9.865473956E-2,-5.390885845E-2,-3.207042515E-1
1.792565148E1,-5.146539584E-2,-1.027780771E-1,-4.821254015E-1
1.793565148E1,3.543018550E-2,-3.109304011E-1,-5.688682795E-1
1.794565148E1,1.204931661E-1,-4.667010605E-1,-6.027712822E-1
1.795565148E1,1.802052408E-1,-5.338962078E-1,-5.178610086E-1
1.796565148E1,1.664607823E-1,-4.995350540E-1,-3.417791128E-1
1.797565148E1,1.653917581E-1,-4.934264123E-1,-1.061378345E-1
1.798565148E1,1.934915632E-1,-5.852088928E-1,1.264491081E-1
1.799565148E1,2.475531399E-1,-7.935139537E-1,4.415028691E-1
1.800565148E1,3.379611969E-1,-9.538660645E-1,7.797694802E-1
1.801565148E1,4.218024611E-1,-9.715811610E-1,1.057865858E0
1.802565148E1,4.807509482E-1,-9.657779336E-1,1.216538191E0
1.803565148E1,5.757405162E-1,-9.992228150E-1,1.258993268E0
1.804565148E1,7.518224120E-1,-1.051146388E0,1.259604096E0
1.805565148E1,9.126327038E-1,-1.050382733E0,1.201877356E0
1.806565148E1,1.022588372E0,-1.007316828E0,1.178817153E0
1.807565148E1,1.049008369E0,-9.373727441E-1,1.209665895E0
1.808565148E1,1.037860036E0,-8.148942590E-1,1.217607141E0
1.809565148E1,9.359982610E-1,-7.212791443E-1,1.153619051E0
1.810565148E1,7.903069258E-1,-7.673994899E-1,1.015716195E0
1.811565148E1,6.823364496E-1,-8.894197941E-1,8.943067193E-1
1.812565148E1,5.099197626E-1,-1.079398870E0,7.898487449E-1
1.813565148E1,1.889100820E-1,-1.473712444E0,7.113525867E-1
1.814565148E1,-2.438879460E-1,-1.991726160E0,6.287330389E-1
1.815565148E1,-7.504479289E-1,-2.615877628E0,5.334380865E-1
1.816565148E1,-1.088103771E0,-2.957504034E0,4.444044530E-1
1.817565148E1,-1.351081252E0,-3.048522949E0,4.016439021E-1
1.818565148E1,-1.400103092E0,-2.822502851E0,4.554000497E-1
1.819565148E1,-1.421788812E0,-2.408794403E0,5.283984542E-1
1.820565148E1,-1.373988628E0,-2.066251755E0,5.387831330E-1
1.821565148E1,-1.109942198E0,-1.952783465E0,5.096143484E-1
1.822565148E1,-5.893322229E-1,-1.743562102E0,3.058907688E-1
1.823565148E1,1.863138936E-2,-1.216538191E0,1.374446787E-3
1.824565148E1,5.876523852E-1,-4.943426847E-1,-2.008219510E-1
1.825565148E1,9.217956662E-1,4.444044828E-2,-3.109304011E-1
1.826565148E1,1.188132882E0,5.123631954E-1,-3.711006343E-1
1.827565148E1,1.362993121E0,6.812674403E-1,-4.034765065E-1
1.828565148E1,1.424843192E0,5.314527750E-1,-4.726569951E-1
1.829565148E1,1.381166339E0,3.608686328E-1,-5.175555944E-1
1.830565148E1,1.272890449E0,1.476766765E-1,-5.490151644E-1
1.831565148E1,1.157589674E0,3.222314268E-2,-5.213735104E-1
1.832565148E1,1.025031924E0,3.512475267E-2,-4.124867618E-1
1.833565148E1,9.237809777E-1,9.117163718E-2,-3.228422701E-1
1.834565148E1,8.535314798E-1,2.347249687E-1,-2.742784917E-1
1.835565148E1,7.661777139E-1,4.761694670E-1,-2.179261744E-1
1.836565148E1,6.960809231E-1,4.931209683E-1,-8.964447677E-2
1.837565148E1,5.949827433E-1,4.228714705E-1,-4.276056774E-3
1.838565148E1,4.807509482E-1,3.196352422E-1,3.558290005E-2
1.839565148E1,3.185662329E-1,2.168571651E-1,1.098030284E-1
1.840565148E1,2.193006277E-1,2.138028294E-1,2.246456891E-1
1.841565148E1,2.177734673E-1,2.463314086E-1,3.457497358E-1
1.842565148E1,2.721404731E-1,3.298672438E-1,4.095851481E-1
1.843565148E1,3.799581826E-1,4.694499373E-1,4.528038502E-1
1.844565148E1,5.093088746E-1,4.361577928E-1,5.086980462E-1
1.845565148E1,6.007859707E-1,2.663372457E-1,5.917757154E-1
1.846565148E1,6.545420885E-1,7.635815442E-2,6.846272349E-1
1.847565148E1,6.954700947E-1,-6.826419383E-2,7.486153841E-1
1.848565148E1,7.562511563E-1,-3.488040566E-1,8.312348723E-1
1.849565148E1,8.390234113E-1,-6.287330389E-1,8.674286604E-1
1.850565148E1,9.202684760E-1,-7.603744864E-1,8.762862086E-1
1.851565148E1,9.837985039E-1,-7.289149761E-1,8.665123582E-1
1.852565148E1,1.040303469E0,-6.177374721E-1,8.292495608E-1
1.853565148E1,1.037860036E0,-5.070181489E-1,7.626652718E-1
1.854565148E1,9.233227968E-1,-3.775147200E-1,6.159048676E-1
1.855565148E1,7.732026577E-1,-2.481640130E-1,4.068362415E-1
1.856565148E1,6.513350606E-1,-1.149953827E-1,2.600758672E-1
1.857565148E1,4.280638099E-1,8.796459436E-2,1.369865239E-1
1.858565148E1,1.061378345E-1,2.234239578E-1,4.673119262E-2
1.859565148E1,-2.390010208E-1,3.379611969E-1,-6.566801667E-2
1.860565148E1,-4.923573732E-1,4.865541756E-1,-1.803579628E-1
1.861565148E1,-8.255843520E-1,6.357579827E-1,-3.352122903E-1
1.862565148E1,-1.240820050E0,6.423248053E-1,-5.810855627E-1
1.863565148E1,-1.647809029E0,5.655084848E-1,-8.054258227E-1
1.864565148E1,-1.812131763E0,5.494732857E-1,-9.004153609E-1
1.865565148E1,-1.892002344E0,5.451972485E-1,-9.552405477E-1
1.866565148E1,-1.897500157E0,4.831944108E-1,-1.041067123E0
1.867565148E1,-1.663996935E0,6.803511381E-1,-1.212567568E0
1.868565148E1,-1.541671157E0,1.045953989E0,-1.452484846E0
1.869565148E1,-1.659873605E0,1.637577057E0,-1.599245191E0
1.870565148E1,-1.971109390E0,1.914146304E0,-1.690111399E0
1.871565148E1,-2.187966585E0,1.630704761E0,-1.842522264E0
1.872565148E1,-2.257910728E0,1.291521788E0,-1.835802794E0
1.873565148E1,-2.171778679E0,1.165378213E0,-1.703550458E0
1.874565148E1,-1.891238809E0,9.042332768E-1,-1.366047382E0
1.875565148E1,-1.498452425E0,6.003278494E-1,-1.026406288E0
1.876565148E1,-1.204779029E0,3.645338416E-1,-8.145887852E-1
1.877565148E1,-9.760099649E-1,4.364632070E-1,-7.304421067E-1
1.878565148E1,-8.220719099E-1,5.187773108E-1,-6.801984310E-1
1.879565148E1,-6.258314252E-1,8.660541773E-1,-7.811439037E-1
1.880565148E1,-3.972151279E-1,1.168279767E0,-1.099862933E0
1.881565148E1,-2.666426897E-1,1.329395533E0,-1.387274981E0
1.882565148E1,-2.921462953E-1,1.309847832E0,-1.437365890E0
1.883565148E1,-3.570507467E-1,8.455902338E-1,-1.427592039E0
1.884565148E1,-3.969096839E-1,2.122756690E-1,-1.369865298E0
1.885565148E1,-4.205807149E-1,-4.237877727E-1,-1.247386813E0
1.886565148E1,-4.037819207E-1,-8.295549750E-1,-1.206917048E0
1.887565148E1,-3.903428912E-1,-1.163392901E0,-1.120784998E0
1.888565148E1,-3.529273868E-1,-1.439351201E0,-1.011287451E0
1.889565148E1,-2.692388594E-1,-1.565342188E0,-9.083566070E-1
1.890565148E1,-1.927279830E-1,-1.592067599E0,-8.011497855E-1
1.891565148E1,-1.249219403E-1,-1.490205765E0,-6.835582256E-1
1.892565148E1,-1.802052557E-2,-1.270599723E0,-5.128213763E-1
1.893565148E1,9.086620808E-2,-9.981538057E-1,-3.407101035E-1
1.894565148E1,1.847867370E-1,-6.940956116E-1,-1.463022232E-1
1.895565148E1,2.402227521E-1,-4.871650338E-1,4.886921961E-3
1.896565148E1,2.803871334E-1,-3.283400834E-1,1.936442852E-1
1.897565148E1,2.736676335E-1,-2.547308207E-1,3.784310222E-1
1.898565148E1,2.880229652E-1,-2.222022265E-1,5.225952268E-1
1.899565148E1,3.240640163E-1,-2.493857294E-1,6.273586154E-1
1.900565148E1,3.677408695E-1,-3.106249869E-1,7.026477456E-1
1.901565148E1,4.182899892E-1,-4.318817258E-1,7.825183868E-1
1.902565148E1,4.697553813E-1,-5.395467281E-1,8.281805515E-1
1.903565148E1,4.850270152E-1,-7.011205554E-1,8.284859657E-1
1.904565148E1,4.761694670E-1,-7.881689072E-1,7.962628603E-1
1.905565148E1,4.433354437E-1,-8.258898258E-1,7.034113407E-1
1.906565148E1,3.726277947E-1,-6.496551633E-1,6.104071140E-1
1.907565148E1,3.046690524E-1,-2.819143236E-1,4.697553813E-1
1.908565148E1,2.374738604E-1,6.566801574E-3,2.797762752E-1
1.909565148E1,1.751656085E-1,3.110831380E-1,7.147123665E-2
1.910565148E1,1.695151031E-1,3.746131063E-1,-1.211040318E-1
1.911565148E1,2.090686262E-1,3.425426781E-1,-2.275473028E-1
1.912565148E1,2.486221492E-1,3.112358451E-1,-2.411390543E-1
1.913565148E1,2.597704530E-1,3.098613918E-1,-2.009746730E-1
1.914565148E1,2.461786866E-1,3.139847219E-1,-9.590584040E-2
1.915565148E1,1.798998117E-1,2.142609805E-1,6.979135424E-2
1.916565148E1,1.247692257E-1,-9.315694682E-3,2.626720667E-1
1.917565148E1,7.513642311E-2,-2.900082767E-1,3.798054755E-1
1.918565148E1,7.192938030E-2,-6.682865620E-1,4.815145433E-1
1.919565148E1,2.026545405E-1,-9.338602424E-1,6.580545902E-1
1.920565148E1,2.979495227E-1,-1.114981771E0,7.912232280E-1
1.921565148E1,3.970624208E-1,-1.194394231E0,9.431759119E-1
1.922565148E1,5.042692423E-1,-1.111469269E0,1.025337338E0
1.923565148E1,6.407976151E-1,-6.818783283E-1,9.943358898E-1
1.924565148E1,7.573201656E-1,-1.123992056E-1,8.703302741E-1
1.925565148E1,8.130616546E-1,1.831068546E-1,7.570147514E-1
1.926565148E1,7.823656797E-1,2.811507285E-1,6.977608204E-1
1.927565148E1,5.917757154E-1,3.074179292E-1,6.860016584E-1
1.928565148E1,2.015855312E-1,1.814269722E-1,7.422012687E-1
1.929565148E1,-2.674062550E-1,-4.627304152E-2,8.321511745E-1
1.930565148E1,-5.867360830E-1,-2.562579811E-1,9.156870246E-1
1.931565148E1,-8.718574047E-1,-6.707300544E-1,1.030071497E0
1.932565148E1,-9.987646937E-1,-1.194699645E0,1.093296051E0
1.933565148E1,-8.906415105E-1,-1.549765110E0,1.008233070E0
1.934565148E1,-5.534439087E-1,-1.640325904E0,7.568620443E-1
1.935565148E1,-2.919935882E-1,-1.519832730E0,5.496259928E-1
1.936565148E1,-6.902777404E-2,-1.383762479E0,3.558290005E-1
1.937565148E1,1.931861341E-1,-1.344208956E0,1.553124934E-1
1.938565148E1,4.776966274E-1,-1.200655699E0,2.871066704E-2
1.939565148E1,7.199047208E-1,-1.011134744E0,-4.520402849E-2
1.940565148E1,9.851729274E-1,-6.892086864E-1,-1.085812971E-1
1.941565148E1,1.187827468E0,-2.415972054E-1,-1.518000066E-1
1.942565148E1,1.289994717E0,1.910481006E-1,-1.631010175E-1
1.943565148E1,1.282511592E0,4.274529517E-1,-1.336267740E-1
1.944565148E1,1.231351614E0,6.133087277E-1,-1.533271819E-1
1.945565148E1,1.133765936E0,6.588181853E-1,-1.553124934E-1
1.946565148E1,1.054506183E0,6.111706495E-1,-1.114829108E-1
1.947565148E1,1.010218382E0,5.145012736E-1,-2.412917651E-2
1.948565148E1,1.000902653E0,3.572034538E-1,3.985895589E-2
1.949565148E1,1.005331516E0,1.803579628E-1,9.010262042E-2
1.950565148E1,9.844093323E-1,7.712173462E-2,9.941831976E-2
1.951565148E1,9.031642675E-1,9.101892263E-2,8.979719132E-2
1.952565148E1,7.953465581E-1,7.513642311E-2,8.872817457E-2
1.953565148E1,6.204863787E-1,-1.059851199E-1,1.136209369E-1
1.954565148E1,4.149302244E-1,-3.964515328E-1,1.466076523E-1
1.955565148E1,2.020436823E-1,-5.780312419E-1,1.875356287E-1
1.956565148E1,1.725694351E-2,-6.307183504E-1,2.339613885E-1
1.957565148E1,-8.811730891E-2,-6.467535496E-1,2.718350291E-1
1.958565148E1,-1.713477075E-1,-6.711881757E-1,3.207042515E-1
1.959565148E1,-1.941024363E-1,-7.133378983E-1,3.535382748E-1
1.960565148E1,-1.791362315E-1,-7.415903807E-1,3.935499489E-1
1.961565148E1,-1.617265791E-1,-7.564038634E-1,4.350887835E-1
1.962565148E1,-1.689042449E-1,-7.654141784E-1,4.911356568E-1
1.963565148E1,-2.057088763E-1,-7.709119320E-1,5.326744914E-1
1.964565148E1,-2.623666227E-1,-7.556403279E-1,5.487096906E-1
1.965565148E1,-3.301726580E-1,-7.244861722E-1,5.270239711E-1
1.966565148E1,-3.660610020E-1,-7.073819637E-1,4.856378734E-1
1.967565148E1,-3.772092760E-1,-7.009678483E-1,4.112650156E-1
1.968565148E1,-3.588833213E-1,-6.893614531E-1,3.320052624E-1
1.969565148E1,-3.231477141E-1,-7.093672752E-1,2.499966025E-1
1.970565148E1,-2.712241709E-1,-7.438811660E-1,1.837177277E-1
1.971565148E1,-1.737911552E-1,-7.878634334E-1,1.101084575E-1
1.972565148E1,-5.925392732E-2,-8.339837790E-1,4.627304152E-2
1.973565148E1,7.819075137E-2,-8.272642493E-1,1.985311974E-3
1.974565148E1,1.692096740E-1,-8.434522152E-1,-4.276056774E-3
1.975565148E1,2.428189367E-1,-9.433286786E-1,1.466076635E-2
1.976565148E1,2.794708610E-1,-1.039998055E0,5.665775016E-2
1.977565148E1,2.501493096E-1,-1.056491494E0,1.079704314E-1
1.978565148E1,1.262963861E-1,-9.453139901E-1,1.429424733E-1
1.979565148E1,-1.985311974E-3,-7.884743214E-1,1.354593635E-1
1.980565148E1,-1.989893466E-1,-6.249151230E-1,8.781187981E-2
1.981565148E1,-5.047274232E-1,-5.138903856E-1,1.450804994E-2
1.982565148E1,-8.761335015E-1,-4.660901725E-1,-6.276640296E-2
1.983565148E1,-1.143387079E0,-4.981606007E-1,-1.223257631E-1
1.984565148E1,-1.415069342E0,-5.852088928E-1,-2.015855312E-1
1.985565148E1,-1.638798714E0,-5.711590052E-1,-3.220787048E-1
1.986565148E1,-1.833512068E0,-3.935499489E-1,-4.647157490E-1
1.987565148E1,-2.032654047E0,-5.742133409E-2,-6.762278080E-1
1.988565148E1,-2.230574369E0,2.948952019E-1,-9.254608750E-1
1.989565148E1,-2.520430088E0,7.380779386E-1,-1.181413412E0
1.990565148E1,-2.796082973E0,7.939720750E-1,-1.191645384E0
1.991565148E1,-2.880076885E0,1.650863290E-1,-1.151022792E0
1.992565148E1,-2.727971554E0,-3.810271919E-1,-1.183398724E0
1.993565148E1,-2.346333504E0,-7.159340382E-1,-1.265254617E0
1.994565148E1,-1.965917110E0,-1.150411963E0,-1.290147424E0
1.995565148E1,-1.782657504E0,-1.857183099E0,-1.264949203E0
1.996565148E1,-1.694387436E0,-2.406809092E0,-1.238834739E0
1.997565148E1,-1.521512628E0,-2.830749512E0,-1.170570493E0
1.998565148E1,-1.271668673E0,-2.874731779E0,-1.139569163E0
1.999565148E1,-8.584184051E-1,-2.737745285E0,-1.351844788E0
2.000565148E1,-5.163338780E-1,-2.469422817E0,-1.509753466E0
2.001565148E1,-2.590068579E-1,-2.202627420E0,-1.588096976E0
2.002565148E1,-4.123340361E-3,-1.706910253E0,-1.593289256E0
2.003565148E1,1.922698319E-1,-1.139416456E0,-1.621083617E0
2.004565148E1,3.585779071E-1,-7.357872128E-1,-1.572825313E0
2.005565148E1,4.650211632E-1,-7.990117669E-1,-1.440267563E0
2.006565148E1,5.638286471E-1,-1.184773088E0,-1.311833143E0
2.007565148E1,6.805039048E-1,-1.749059916E0,-1.246623278E0
2.008565148E1,7.790058851E-1,-2.345264435E0,-1.211040378E0
2.009565148E1,8.458956480E-1,-2.850908041E0,-1.197906733E0
2.010565148E1,8.729264140E-1,-3.188869238E0,-1.207069755E0
2.011565148E1,8.817839622E-1,-3.549585104E0,-1.150411963E0
2.012565148E1,8.578075171E-1,-3.824932814E0,-1.071304917E0
