Time (s),Acceleration x (m/s^2),Acceleration y (m/s^2),Acceleration z (m/s^2)
8.232607406,2.239681959,0.7908278704,9.540781975
8.242607406,2.196611166,0.8141579032,9.593423843
8.252607406,2.173281193,0.8524430394,9.660423279
8.262607406,2.106282234,0.8285148144,9.641280174
8.272607406,2.039283037,0.8237292171,9.602396965
8.282607406,2.048854351,0.8333004713,9.611968994
8.292607406,2.067996979,0.8572286963,9.598209381
8.302607406,2.058425665,0.8620143533,9.626923561
8.312607406,2.077568293,0.8428717852,9.622138023
8.322607406,2.125424623,0.8422735929,9.67956543
8.332607406,2.1302104,0.8422735929,9.674779892
8.342607406,2.091925144,0.8141579032,9.64068222
8.352607406,2.048854351,0.799800992,9.573683739
8.362607406,2.06261301,0.8003991842,9.511469841
8.372607406,2.067398787,0.8003991842,9.511469841
8.382607406,2.105684042,0.7860422134,9.506684303
8.392607406,2.086541414,0.7722834945,9.406186104
8.402607406,2.134397745,0.7680960894,9.358329773
8.412607406,2.20618248,0.7860422134,9.531210899
8.422607406,2.249253273,0.7668996453,9.540781975
8.432607406,2.354537487,0.7908278704,9.546165466
8.442607406,2.378465652,0.7908278704,9.541379929
8.452607406,2.354537487,0.7525427341,9.521639824
8.462607406,2.325823545,0.7674978375,9.445069313
8.472607406,2.335394859,0.7866404653,9.421739578
8.482607406,2.220539331,0.7633104324,9.378069878
8.492607406,2.268395901,0.7579265833,9.411569595
8.502607406,2.321038008,0.7674978375,9.478569031
8.512607406,2.258824587,0.7148557901,9.430113792
8.522607406,2.282752752,0.7531409264,9.454640388
8.532607406,2.330609322,0.7663014531,9.602995872
8.542607406,2.249253273,0.7764709592,9.55035305
8.552607406,2.201396942,0.7764709592,9.492925644
8.562607406,2.201396942,0.7764709592,9.535996437
8.572607406,2.139183521,0.7621139884,9.521040916
8.582607406,2.143969059,0.7525427341,9.501898766
8.592607406,2.158325911,0.7531409264,9.449256897
8.602607406,2.163111687,0.733400166,9.497113228
8.612607406,2.153540373,0.709471941,9.521040916
8.622607406,2.206780672,0.72323066,9.616754532
8.632607406,2.216351986,0.718445003,9.64068222
8.642607406,2.240280151,0.7040880919,9.607182503
8.652607406,2.235494614,0.7136593461,9.607182503
8.662607406,2.263610125,0.7716853023,9.492925644
8.672607406,2.273181438,0.8009973764,9.478569031
8.682607406,2.263610125,0.8249256015,9.450452805
8.692607406,2.297109842,0.8392825127,9.469595909
8.702607406,2.268395901,0.8434699774,9.498309135
8.712607406,2.196611166,0.7477570772,9.482755661
8.722607406,2.215753794,0.7531409264,9.444471359
8.732607406,2.30189538,0.7525427341,9.57906723
8.742607406,2.029113531,0.6388836503,9.294919968
8.752607406,2.148754835,0.6927221417,9.185447693
8.762607406,2.2259233,0.7567301393,9.612566948
8.772607406,2.230708838,0.775872767,9.660423279
8.782607406,2.196611166,0.7573283911,9.544969559
8.792607406,2.158325911,0.7477570772,9.477970123
8.802607406,2.167897224,0.709471941,9.487542152
8.812607406,2.210968018,0.6759724021,9.487542152
8.822607406,2.225325108,0.7477570772,9.482755661
8.832607406,2.220539331,0.7429714203,9.530612946
8.842607406,2.187039852,0.643071115,9.467801094
8.852607406,2.249253273,0.8201399446,9.406784058
8.862607406,2.244467735,0.8105686903,9.40199852
8.872607406,2.273779631,0.6693921089,9.779465675
8.882607406,2.34137702,0.5916253924,10.01874828
8.892607406,2.384447813,0.6155536175,10.00498962
8.902607406,2.288136721,0.650847733,9.722038269
8.912607406,2.259422779,0.6610172391,9.588040352
8.922607406,2.273779631,0.6323033571,9.631111145
8.932607406,2.024327993,0.5970092416,9.11725235
8.973885493,-1.503290772,-9.579665184,1.377667665
8.983885493,-1.575075507,-9.464211464,1.305882931
8.993885493,-1.623530149,-9.449256897,1.219741344
9.003885493,-1.59003067,-9.458827972,1.181456208
9.013885493,-1.575673699,-9.468399048,1.205384374
9.023885493,-1.575673699,-9.477970123,1.253240824
9.033885493,-1.622931957,-9.502496719,1.310668588
9.043885493,-1.484148264,-9.497711182,1.349551916
9.053885493,-1.541576028,-9.564710617,1.277169108
9.063885493,-1.541576028,-9.526425362,1.277169108
9.073885493,-1.512862086,-9.545567513,1.291526079
9.083885493,-1.5224334,-9.588638306,1.271785259
9.093885493,-1.527219057,-9.583254814,1.257428288
9.103885493,-1.566102386,-9.607182503,1.185643673
9.113885493,-1.489532113,-9.635896683,1.195214868
9.123885493,-1.479960799,-9.626325607,1.204786181
9.133885493,-1.465603828,-9.650253296,1.233500123
9.143885493,-1.427318692,-9.712467194,1.266999602
9.153885493,-1.465603828,-9.659825325,1.228714466
9.163885493,-1.508674622,-9.611968994,1.257428288
9.173885493,-1.512862086,-9.574281693,1.286740422
9.183885493,-1.555932879,-9.564710617,1.329811215
9.193885493,-1.546361685,-9.526425362,1.267597795
9.203885493,-1.518245935,-9.540184021,1.214955688
9.213885493,-1.489532113,-9.577870369,1.14795661
9.223885493,-1.475175142,-9.573084831,1.095314622
9.233885493,-1.484746456,-9.577870369,1.119242787
9.243885493,-1.475175142,-9.583254814,1.258026481
9.253885493,-1.470389485,-9.631111145,1.238285661
9.263885493,-1.503889084,-9.626325607,1.200000525
9.273885493,-1.54217422,-9.601799011,1.166501045
9.283885493,-1.537388563,-9.59282589,1.195214868
9.293885493,-1.508674622,-9.573683739,1.200598717
9.303885493,-1.479960799,-9.607182503,1.195214868
9.313885493,-1.465603828,-9.631111145,1.200000525
9.323885493,-1.465603828,-9.673583984,1.176072359
9.333885493,-1.436890006,-9.687940598,1.156929731
9.343885493,-1.441675663,-9.606584549,1.143171072
9.353885493,-1.499103427,-9.554540634,1.210170031
9.363885493,-1.527219057,-9.555138588,1.296311617
9.373885493,-1.555932879,-9.746564865,1.280758262
9.383885493,-1.561316729,-9.741181374,1.189232826
9.393885493,-1.575673699,-9.678369522,1.089332461
9.403885493,-1.518245935,-9.601799011,1.085145116
9.413885493,-1.475175142,-9.649655342,1.109073281
9.423885493,-1.513460279,-9.707083702,1.079761267
9.433885493,-1.479960799,-9.677771568,1.022931695
9.443885493,-1.436890006,-9.59641552,1.023529887
9.453885493,-1.412961721,-9.582057953,1.05224371
9.463885493,-1.475175142,-9.601799011,1.128215909
9.473885493,-1.551745534,-9.650253296,1.190429211
9.483885493,-1.579861164,-9.64068222,1.232901812
9.493885493,-1.604387641,-9.635896683,1.185045362
9.503885493,-1.642672777,-9.740582466,1.112662554
9.513885493,-1.642672777,-9.788438797,1.116850019
9.523885493,-1.685145378,-9.812965393,1.150349498
9.533885493,-1.737787485,-9.769296646,1.135992527
9.543885493,-1.695314884,-9.65444088,1.136590719
9.553885493,-1.628315806,-9.587442398,1.147358418
9.563885493,-1.488933921,-9.660423279,1.300499082
9.573885493,-1.402792215,-9.722636223,1.362712502
9.583885493,-1.359721422,-9.660423279,1.310668588
9.593885493,-1.316650629,-9.598209381,1.383051515
9.603885493,-1.316650629,-9.57906723,1.354337573
9.613885493,-1.259222865,-9.655637741,1.397408366
9.623885493,-1.2352947,-9.594022751,1.435693622
9.633885493,-1.125224829,-9.493523598,1.508674622
9.643885493,-1.049252748,-9.445667267,1.451845169
9.653885493,-1.006181955,-9.4307127,1.409372568
9.663885493,-0.9631111026,-9.527023315,1.499701619
9.673885493,-0.9577272534,-9.68674469,1.791027784
9.683885493,-1.0863415,-9.597013474,1.948953986
9.693885493,-1.210768223,-9.44865799,1.963909149
9.703885493,-1.301695466,-9.234500885,2.132004976
9.713885493,-1.329811215,-9.001200676,2.248655081
9.723885493,-1.238883972,-8.824729919,2.369492531
9.733885493,-1.191027522,-8.748159409,2.399402857
9.743885493,-1.272383451,-8.919844627,2.277967215
9.753885493,-1.253839016,-9.139386177,2.204986095
9.763885493,-1.219741344,-9.469595909,2.236690998
9.773885493,-1.50269258,-9.506086349,1.880758643
9.783885493,-1.942971945,-9.504291534,1.510469317
9.793885493,-2.330011129,-9.376275063,1.725225091
9.803885493,-2.687737942,-9.299705505,2.428116798
9.813885493,-2.811566591,-9.072386742,2.721237659
9.823885493,-2.687737942,-8.739784241,2.398206472
9.833885493,-2.335394859,-8.896514893,1.541576028
9.843885493,-1.622931957,-9.459425926,1.262812138
9.853885493,-1.456032634,-9.777072906,0.8877372146
9.863885493,-1.581057549,-9.93918705,0.733400166
9.873885493,-1.704886079,-10.01755238,1.009771109
9.883885493,-1.880758643,-10.20778179,1.51106751
9.893885493,-1.57028985,-9.642477036,1.47756803
9.903885493,-1.456032634,-8.890532494,1.405783296
9.913885493,-1.441675663,-8.594420433,1.484746456
9.923885493,-1.259821177,-8.504091263,1.615155339
9.933885493,-1.115055323,-8.803194046,2.078166485
9.943885493,-1.057029366,-8.676973343,2.529213428
9.953885493,-1.157527924,-8.648259163,2.543570518
9.963885493,-1.425524116,-8.891729355,2.378465652
9.973885493,-1.592423439,-9.036494255,2.57766819
9.983885493,-1.677966833,-8.781061172,3.048455954
9.993885493,-1.586441398,-8.397012711,3.611367464
10.00388549,-1.681556106,-8.073383331,3.895515203
10.01388549,-1.610369682,-7.52722168,3.745963812
10.02388549,-1.80658114,-7.535596848,3.525225878
10.03388549,-1.758724689,-7.41176796,3.707678795
10.04388549,-1.615155339,-6.991827965,3.907479286
10.05388549,-1.486541033,-6.789036274,3.569493294
10.06388549,-1.335195065,-6.425925255,2.925823927
10.07388549,-1.631905079,-7.055835724,2.599801779
10.08388549,-2.127817631,-7.891529083,3.028116941
10.09388549,-2.676970243,-8.463413239,3.333800077
10.10388549,-2.413759947,-8.062616348,3.5766716
10.11388549,-1.654038668,-7.558926582,3.486940861
10.12388549,-0.8219345808,-7.166503906,3.583850145
10.13388549,-0.1860419661,-6.887740135,3.454039574
10.14388549,0.2153540403,-6.649055958,3.643670797
10.15388549,0.2057827413,-6.256632805,3.602992773
10.16388549,-0.06161518395,-6.019743443,4.000799656
10.17388549,-0.166301176,-5.763113499,4.294518471
10.18388549,-0.1992024779,-5.331208706,4.857429981
10.19388549,-0.3326023519,-5.017150879,5.102694511
10.20388549,-0.418743968,-5.226522923,4.895116806
10.21388549,-0.4761717021,-5.74636364,4.642673969
10.22388549,0.05024927482,-6.087340832,4.829314232
10.23388549,0.3714857101,-5.967101574,5.520840168
10.24388549,0.4019941986,-5.806782246,6.69511795
10.25388549,-0.1974078715,-5.766702652,8.594420433
10.26388549,-0.4528416991,-6.054439545,10.16710377
10.27388549,-0.3020938635,-7.395616531,11.14516926
10.28388549,-0.1938186288,-9.309874535,9.658628464
10.29388549,-0.07597211748,-10.32084274,8.288139343
10.30388549,0.4941178858,-9.208179474,6.47796917
10.31388549,2.575275421,-8.490332603,4.512863636
10.32388549,2.267797709,-8.484351158,3.486940861
10.33388549,0.5599204898,-9.34815979,2.952743053
10.34388549,2.015354872,-8.206783295,4.287340164
10.35388549,3.119642496,-6.684350014,7.293921471
10.36388549,4.031308174,-3.785445452,12.96132183
10.37388549,3.112463951,-1.152144074,18.72084618
10.38388549,1.13419795,-3.900899172,18.73879242
10.39388549,2.035095692,-3.966103554,20.10688782
10.40388549,5.689534187,-2.863012314,20.98505402
10.41388549,10.72702408,-2.488535643,19.89572144
10.42388549,14.1930275,-0.8949156404,14.30728436
10.43388549,13.06182098,-0.8147560954,9.783055305
10.44388549,11.42752266,-1.345962763,10.31904793
10.45388549,11.77328587,-1.568495274,13.75693512
10.46388549,6.929016113,-1.684547186,16.40519142
10.47388549,3.805186272,-1.365105271,18.46840286
10.48388549,3.727419376,-1.20717907,17.61655807
10.49388549,4.621138573,0.9343972206,15.19203091
10.50388549,5.212165833,2.106282234,11.58126163
10.51388549,5.717649937,3.142374277,8.242675781
10.52388549,6.904489517,3.210569859,5.925227165
10.53388549,7.350152969,3.410370588,3.859622955
10.54388549,8.124231339,5.315655708,3.903291941
10.55388549,8.614161491,3.792025566,5.015954494
10.56388549,8.452047348,2.36650157,4.886742115
10.57388549,8.772088051,2.23130703,4.350749969
10.58388549,8.234899521,3.311666489,3.695116282
10.59388549,8.074580193,2.967698336,2.049452543
10.60388549,7.627122402,2.938984394,0.5347958803
10.61388549,6.965506554,3.232105255,-0.4863412082
10.62388549,6.552146435,3.721437454,-1.499701619
10.63388549,6.958328247,4.348356724,-1.436890006
10.64388549,8.721240044,5.344369411,-2.041077614
10.65388549,12.10469151,7.098906517,-2.860021353
10.66388549,15.15075493,8.892925262,-2.338984251
10.67388549,13.71565914,9.687342644,0.5096712112
10.68388549,11.27498055,10.91186905,2.605783939
10.69388549,9.784850121,11.51186943,3.652643681
10.70388549,8.478368759,11.35573769,3.143570662
10.71388549,6.053841114,9.847661972,5.198407173
10.72388549,4.48833704,8.770293236,6.626324177
10.73388549,2.447259426,7.877171993,6.790232658
10.74388549,0.9020941257,7.29631424,6.12921524
10.75388549,0.07238288224,7.016354084,4.869992256
10.76388549,-0.2500499785,6.7704916,3.588635683
10.77388549,-0.5431707501,6.428916454,2.354537487
10.78388549,-0.8596215248,6.192026615,1.920838356
10.79388549,-0.8644071817,6.46421051,1.984846354
10.80388549,-0.6400800347,6.790830612,1.858624935
10.81388549,-0.2237289101,6.703492641,2.099103689
10.82388549,1.019940615,6.339783669,2.221137524
10.83388549,1.378265858,6.493522644,2.166102648
10.84388549,2.005185366,6.537191391,2.201995134
10.85388549,2.933002472,6.631109715,2.580060959
10.86388549,3.785445452,6.717849731,3.345165968
10.87388549,4.365106583,6.620342255,3.725026608
10.88388549,4.804787636,6.309873104,3.729214191
10.89388549,5.240281582,5.985047817,3.643072367
10.90388549,5.823532104,5.904888153,3.519842148
10.91388549,5.827719688,5.403591633,3.296711445
10.92388549,5.693721294,5.112864017,3.093321562
10.93388549,5.770291805,5.056632519,2.96889472
10.94388549,5.740979671,5.487938881,2.851646423
10.95388549,5.276174068,6.303293228,2.553141832
10.96388549,5.085346222,6.970890522,2.858226538
10.97388549,5.167300701,7.623532772,3.375076294
10.98388549,5.41136837,7.960322857,3.818944931
10.99388549,5.454439163,8.070392609,3.833899975
11.00388549,4.679164886,7.647460938,3.282354355
11.01388549,4.028316975,6.912864685,2.844467878
11.02388549,3.953541279,6.1429739,3.471387386
11.03388549,3.908077478,6.005984783,4.734199524
11.04388549,3.900899172,5.74337244,6.150152206
11.05388549,3.917648792,5.900700569,7.702496052
11.06388549,3.489931822,5.828916073,9.141778946
11.07388549,2.931805849,4.762913704,9.664610863
11.08388549,3.10408926,3.873381615,9.58265686
11.09388549,3.566502094,3.955335855,8.785248756
11.10388549,3.765704632,4.84546566,8.112266541
11.11388549,3.960719585,6.57966423,7.865208149
11.12388549,3.873381615,8.060222626,7.572685242
11.13388549,2.592025042,8.37428093,7.665407181
11.14388549,1.268794179,8.416155815,8.436494827
11.15388549,0.3714857101,6.660421848,8.934201241
11.16388549,-1.344766378,4.689932346,8.507680893
11.17388549,-2.950948477,3.004786968,8.414361
11.18388549,-3.442673683,1.549352646,8.408378601
11.19388549,-3.3852458,0.8608179688,8.365905762
11.20388549,-2.453241348,-0.05503492057,7.999206066
11.21388549,-1.300499082,-1.100698471,7.771887779
11.22388549,0.1292124242,-1.372882009,7.823931694
11.23388549,1.403390527,-0.9589236975,9.177073479
11.24388549,2.79421854,-0.457029134,11.65125179
11.25388549,3.704687595,-0.3505485058,13.10668564
11.26388549,5.416153908,-2.882753134,14.98385525
11.27388549,6.916453838,-5.712863922,16.1258297
11.28388549,7.975277901,-9.978070259,16.4279232
11.29388549,8.652446747,-12.56770229,20.39821434
11.30388549,8.422736168,-13.6289196,25.46142769
11.31388549,4.653441906,-12.54676533,24.8985157
11.32388549,0.8075776696,-9.669994354,22.03849411
11.33388549,-2.176870346,-5.903691769,17.16192245
11.34388549,-3.606581926,-2.959323406,12.25723362
11.35388549,-4.315455437,-1.32263267,9.162117958
11.36388549,-4.083351612,-1.503889084,7.600800991
11.37388549,-2.553141832,2.078166485,5.919843197
11.38388549,-1.771286964,3.249453068,4.709673405
11.39388549,-1.162313581,3.503092289,3.233899832
11.40388549,-0.7812566161,3.595814228,2.225325108
11.41388549,-0.4911268353,3.167499065,1.15094769
11.42388549,-0.2027917206,2.416750908,1.884945989
11.43388549,0.3242274821,1.45782721,2.187638044
11.44388549,1.329213023,1.010967612,2.595614433
11.45388549,2.362912416,0.8991031051,3.034697294
11.46388549,3.7710886,0.8195417523,4.413561344
11.47388549,4.772484779,0.02033899166,5.350949764
11.48388549,4.932205677,-0.4402793646,6.291927338
11.49388549,5.009374142,-0.7118647099,6.826723099
11.50388549,5.178068161,-1.102493048,7.323233604
11.51388549,5.546562672,-1.265803218,7.509873867
11.52388549,5.78584528,-1.266999602,7.716853142
11.53388549,5.839085579,-0.9391828775,8.063812256
11.54388549,6.164509296,-0.3248256743,8.658429146
11.55388549,6.217749596,1.241276741,9.204590797
11.56388549,6.494120598,1.396211982,8.981459618
11.57388549,6.671189308,0.8620143533,8.710473061
11.58388549,6.588637352,1.204786181,8.238488197
11.59388549,6.937989235,1.334596872,8.188239098
11.60388549,7.311867714,1.584048629,8.875576973
11.61388549,7.686942577,1.317248821,10.25444126
11.62388549,9.139984131,1.256830096,12.43848991
11.63388549,9.766305923,0.8572286963,15.18724537
11.64388549,5.799603939,-0.8835497499,18.95294952
11.65388549,1.625923038,-1.456032634,21.96491623
11.66388549,-1.534397483,-3.123231649,21.78365898
11.67388549,-1.791625977,-2.558525562,19.52124596
11.68388549,-2.282752752,-1.1820544,15.21895027
11.69388549,-0.8847461939,-0.2003988922,10.70070267
11.70388549,-0.8668000102,1.660618901,7.829914093
11.71388549,-0.5814558864,2.225325108,4.061218262
11.72388549,0.9840483069,1.974078655,2.413759947
11.73388549,0.9966106415,2.334198475,1.424327731
11.74388549,0.7214360237,2.455634356,2.59740901
11.75388549,-0.03110669367,2.535195589,4.304687977
11.76388549,-0.6173482537,2.430509567,5.690132141
11.77388549,-1.193420291,2.670390129,6.991827965
11.78388549,-0.394217521,1.677966833,7.405188084
11.79388549,0.3050848842,0.7812566161,7.809575081
11.80388549,1.02711916,0.456430912,7.752745152
11.81388549,1.77846539,0.1345962733,8.041080475
11.82388549,2.482553482,-0.3595215976,8.365905762
11.83388549,2.167299032,-0.6334998012,8.506484032
11.84388549,1.65164578,-0.6323033571,8.940781593
11.85388549,1.614557028,-0.5790630579,9.68315506
11.86388549,1.712662816,-0.584446907,11.23968601
11.87388549,1.63788712,-0.4001995921,12.43250847
11.88388549,1.433300734,-0.1304088384,12.83091354
11.89388549,0.5916253924,0.2506481707,13.03609753
11.90388549,0.8039883971,0.9595218897,11.47119141
11.91388549,0.7274180651,1.01036942,11.68654537
11.92388549,1.182652593,0.8213363886,12.11306667
11.93388549,1.579861164,0.6011967063,12.20877934
11.94388549,2.020140409,0.3433700502,12.14656639
11.95388549,2.37786746,0.1920240223,11.89831066
11.96388549,2.587837696,0.1704886109,11.53041458
11.97388549,2.658426046,0.1471585929,10.70668507
11.98388549,2.7577281,0.2261217386,10.32921696
11.99388549,2.790031195,0.4462614357,9.57906723
12.00388549,2.879163742,0.7537391186,8.690732002
12.01388549,2.839682341,1.136590719,7.936394691
12.02388549,2.772084951,1.368096352,7.616952896
12.03388549,2.647658348,1.583450437,7.593622684
12.04388549,2.599801779,1.549950838,7.627122402
12.05388549,2.303689957,1.415354609,7.701299667
12.06388549,2.136790514,1.231107235,7.99202776
12.07388549,2.123031855,1.348953724,8.2701931
12.08388549,2.209173441,0.9559326172,8.397610664
12.09388549,2.16670084,0.5060819983,8.38923645
12.10388549,2.056631088,0.07118647546,8.32403183
12.11388549,1.880160451,-0.02751746029,8.696115494
12.12388549,1.838286042,0.05084748194,9.160921097
12.13388549,1.948355794,0.1680957973,9.55035305
12.14388549,2.054238319,0.3188436031,10.01575756
12.15388549,2.12183547,0.3403790295,10.3848505
12.16388549,2.203789711,0.2386840582,10.53799057
12.17388549,2.231905222,0.1740778536,10.23589706
12.18388549,2.164308071,0.1034895778,9.976874352
12.19388549,1.963909149,-0.05024927482,10.10907745
12.20388549,1.825723648,-0.1866401732,10.38544846
12.21388549,1.850848317,-0.4576273263,10.85803127
12.22388549,2.07098794,-0.8739784956,10.92802143
12.23388549,1.788036704,0.1459621787,10.8424778
12.24388549,1.646860242,0.613160789,9.561120987
12.25388549,1.163509965,0.4199403822,9.05563736
12.26388549,1.107278705,0.2949153781,9.820742607
12.27388549,1.00737834,0.4797609448,10.09890842
12.28388549,0.8877372146,0.604187727,10.09950638
12.29388549,0.8590233326,0.7046862841,10.11924744
12.30388549,0.8536394835,0.8129615188,9.611968994
12.31388549,0.8626125455,0.8488538265,9.301499367
12.32388549,0.9529415965,0.7010970116,9.195617676
12.33388549,0.9672985673,0.6436693072,9.185447693
12.34388549,0.9625129104,0.6299105883,9.128020287
12.35388549,0.9002995491,0.4145565331,9.068798065
12.36388549,1.001396298,0.561715126,9.285347939
12.37388549,1.097109199,0.5802595019,9.357730865
12.38388549,1.049252748,0.4133601189,9.279964447
12.39388549,0.9008977413,0.2219343036,9.268598557
12.40388549,0.8961120844,0.3984049559,9.375079155
12.41388549,0.8105686903,0.2590230405,9.479166985
12.42388549,0.8009973764,0.2243271172,9.627521515
12.43388549,0.8111668825,0.2033899277,9.924231529
12.44388549,0.6580262184,-0.1824527234,9.581459999
12.45388549,0.9068797827,0.2602194548,10.00139999
12.46388549,0.9260223508,0.2644068897,10.15992451
12.47388549,1.069591761,0.3122633696,10.18923664
12.48388549,1.155733347,0.3026920557,10.18983555
12.49388549,1.208375454,0.2973082066,10.21854877
12.50388549,1.15094769,0.2452643216,10.12223816
12.51388549,1.073779106,0.2805584669,9.824930191
12.52388549,1.030708313,0.3445664644,9.562317848
12.53388549,1.107278705,0.3397808075,9.562317848
12.54388549,1.140778184,0.2961117923,9.691530228
12.55388549,1.126421213,0.2769692242,9.643673897
12.56388549,1.101894855,0.2404786795,9.437292099
12.57388549,1.073180914,0.2793620527,9.341579437
12.58388549,1.030110121,0.2829512656,9.470791817
12.59388549,0.9535398483,0.2596212626,9.340981483
12.60388549,0.9535398483,0.2596212626,9.340981483
12.61388549,0.8865407705,0.1878365725,9.326025963
12.62388549,0.9248259664,0.2021935135,9.412167549
12.63388549,1.088136077,0.2871387303,9.537791252
12.64388549,1.293918848,0.4151547253,9.83150959
12.65388549,1.538584948,0.4749752879,10.23529911
12.66388549,1.451845169,0.537786901,10.11565781
12.67388549,1.236491084,0.4193421602,9.898509026
12.68388549,1.183848977,0.2967100143,9.638887405
12.69388549,1.169492126,0.2386840582,9.667003632
12.70388549,1.255633712,0.3726821244,9.735796928
12.71388549,1.32263267,0.4719842672,9.851250648
12.72388549,1.341775298,0.5395814776,9.784850121
12.73388549,1.369890928,0.5736792088,9.698708534
12.74388549,1.408774376,0.5060819983,9.780064583
12.75388549,1.427318692,0.5353940725,9.73699379
12.76388549,1.466202021,0.5491527915,9.847661972
12.77388549,1.44646132,0.5204389095,9.775279045
12.78388549,1.422533035,0.4348955154,9.745966911
12.79388549,1.37048912,0.3726821244,9.731011391
12.80388549,1.356132269,0.3439682424,9.750154495
12.81388549,1.365105271,0.2919243574,9.649057388
12.82388549,1.341177106,0.3158525825,9.610772133
12.83388549,1.355534077,0.3583251834,9.692726135
12.84388549,1.408774376,0.3672982752,9.774082184
12.85388549,1.518245935,0.3631108403,9.760323524
12.86388549,1.561316729,0.4109672904,9.713065147
12.87388549,1.566102386,0.4354937077,9.665208817
12.88388549,1.561316729,0.4013960063,9.693922997
12.89388549,1.508674622,0.3062812984,9.649655342
12.90388549,1.518245935,0.3643072546,9.544969559
12.91388549,1.570888042,0.4115654826,9.612566948
12.92388549,1.604387641,0.5072783828,9.651450157
12.93388549,1.59003067,0.5072783828,9.646664619
12.94388549,1.556531072,0.4971089065,9.704092026
12.95388549,1.518245935,0.4833501875,9.660423279
12.96388549,1.537388563,0.4061816335,9.756135941
12.97388549,1.527817249,0.4067798555,9.655637741
12.98388549,1.508674622,0.3876372576,9.635896683
12.99388549,1.518245935,0.4121637046,9.549755096
13.00388549,1.546959877,0.4540380836,9.713065147
13.01388549,1.556531072,0.4211367965,9.669994354
13.02388549,1.513460279,0.4259224236,9.631709099
13.03388549,1.441675663,0.4163511395,9.635896683
13.04388549,1.417747378,0.3972085714,9.635896683
13.05388549,1.436890006,0.4211367965,9.659825325
13.06388549,1.427318692,0.3732803464,9.606584549
13.07388549,1.44646132,0.4019941986,9.6693964
13.08388549,1.451246977,0.4205385745,9.731609344
13.09388549,1.49431777,0.4588237405,9.756135941
13.10388549,1.532602906,0.4636093974,9.751350403
13.11388549,1.613958836,0.4498506486,9.689735413
13.12388549,1.59003067,0.4115654826,9.650852203
13.13388549,1.54217422,0.3397808075,9.616754532
13.14388549,1.551745534,0.3738785386,9.578469276
13.15388549,1.537388563,0.3972085714,9.626325607
13.16388549,1.508674622,0.4115654826,9.655039787
13.17388549,1.499103427,0.4205385745,9.722636223
13.18388549,1.523031592,0.4211367965,9.655637741
13.19388549,1.54217422,0.4540380836,9.703494072
13.20388549,1.566102386,0.4540380836,9.70827961
13.21388549,1.575673699,0.4354937077,9.67956543
13.22388549,1.54217422,0.4163511395,9.650852203
13.23388549,1.508674622,0.4067798555,9.6693964
13.24388549,1.460818172,0.3870390654,9.678967476
13.25388549,1.436890006,0.3876372576,9.626325607
13.26388549,1.44646132,0.4307080805,9.602396965
13.27388549,1.527817249,0.4450650215,9.598209381
13.28388549,1.537388563,0.4594219327,9.60778141
13.29388549,1.566102386,0.4642075896,9.646066666
13.30388549,1.585245013,0.4546363056,9.684351921
13.31388549,1.566102386,0.4402793646,9.684351921
13.32388549,1.556531072,0.4019941986,9.660423279
13.33388549,1.556531072,0.4019941986,9.60778141
13.34388549,1.518245935,0.4737788737,9.60778141
13.35388549,1.527817249,0.5066801906,9.728020668
13.36388549,1.537388563,0.4683950245,9.693922997
13.37388549,1.513460279,0.4205385745,9.727422714
13.38388549,1.470389485,0.3541377485,9.64068222
13.39388549,1.475175142,0.3254238665,9.587442398
13.40388549,1.436890006,0.3302095234,9.606584549
13.41388549,1.546959877,0.4013960063,9.732208252
13.42388549,1.566102386,0.3966103494,9.775279045
13.43388549,1.546959877,0.3966103494,9.732208252
13.44388549,1.54217422,0.4348955154,9.698708534
13.45388549,1.566102386,0.4594219327,9.646066666
13.46388549,1.518245935,0.5413761139,9.565308571
13.47388549,1.523031592,0.4791627228,9.540781975
13.48388549,1.63788712,0.3888336718,9.507282257
13.49388549,1.666600943,0.3541377485,9.646066666
13.50388549,1.613958836,0.2919243574,9.6693964
13.51388549,1.618744493,0.3110669553,9.626325607
13.52388549,1.609173179,0.3014956415,9.650253296
13.53388549,1.618744493,0.3391826153,9.736394882
13.54388549,1.609173179,0.4295116663,9.818349838
13.55388549,1.489532113,0.4588237405,9.717850685
13.56388549,1.49431777,0.4881358147,9.622138023
13.57388549,1.537388563,0.4444667995,9.741779327
13.58388549,1.580459356,0.4630111754,9.838089943
13.59388549,1.570888042,0.4444667995,9.770493507
13.60388549,1.599601984,0.3876372576,9.689137459
13.61388549,1.623530149,0.2727817893,9.693324089
13.62388549,1.613958836,0.2829512656,9.583254814
13.63388549,1.436890006,0.3792623878,9.410373688
13.66911882,-2.746960402,-9.316454887,1.278365493
13.67911882,-2.876172781,-9.301499367,1.130010486
13.68911882,-2.895315409,-9.219545364,1.024726272
13.69911882,-2.938386202,-9.25783062,1.067797065
13.70911882,-2.952743053,-9.263215065,1.120439172
13.71911882,-2.986242771,-9.210572243,1.134796143
13.72911882,-3.010170937,-9.168100357,1.177866936
13.73911882,-3.000599623,-9.177671432,1.211366415
13.74911882,-2.976671457,-9.191430092,1.173081279
13.75911882,-3.034099102,-9.220144272,1.124626637
13.76911882,-3.029313564,-9.263215065,1.0863415
13.77911882,-2.995813847,-9.238688469,1.048056364
13.78911882,-2.919243574,-9.272188187,1.000798106
13.79911882,-2.94317174,-9.262616158,1.005583763
13.80911882,-2.995813847,-9.25783062,0.9858429432
13.81911882,-2.919243574,-9.25783062,1.048654556
13.82911882,-2.876172781,-9.2865448,1.072582722
13.83911882,-2.914458036,-9.291928291,1.095912814
13.84911882,-2.876172781,-9.291928291,1.120439172
13.85911882,-2.895315409,-9.320642471,1.138983607
13.86911882,-2.857030153,-9.363713264,1.129412293
13.87911882,-2.818745136,-9.330213547,1.134796143
13.88911882,-2.804388046,-9.306285858,1.163509965
13.89911882,-2.790031195,-9.287142754,1.130010486
13.90911882,-2.818745136,-9.291928291,1.15393877
13.91911882,-2.823530674,-9.273384094,1.220937729
13.92911882,-2.785245657,-9.239884377,1.216750264
13.93911882,-2.770888567,-9.330213547,1.20179522
13.94911882,-2.847458839,-9.391828537,1.067198873
13.95911882,-2.847458839,-9.348757744,1.071984529
13.96911882,-2.857030153,-9.300901413,1.077368379
13.97911882,-2.876172781,-9.27278614,1.125224829
13.98911882,-2.895315409,-9.378668785,1.244267821
13.99911882,-2.928814888,-9.407382011,1.248455167
14.00911882,-2.962314367,-9.287740707,1.220339537
14.01911882,-2.947957516,-9.249456406,1.2352947
14.02911882,-2.947957516,-9.250054359,1.297508121
14.03911882,-2.990430117,-9.321838379,1.316052437
14.04911882,-3.01974225,-9.317052841,1.26341033
14.05911882,-3.043670416,-9.317052841,1.277767301
14.06911882,-3.014358282,-9.307481766,1.320838094
14.07911882,-3.01974225,-9.312267303,1.301695466
14.08911882,-3.05324173,-9.339784622,1.11445713
14.09911882,-3.086741209,-9.354142189,1.109671474
14.10911882,-3.120240688,-9.368498802,1.070788145
14.11911882,-3.03888464,-9.324830055,1.06660068
14.12911882,-2.95752883,-9.334999084,1.100698471
14.13911882,-2.94317174,-9.382855415,1.133599758
14.14911882,-2.914458036,-9.397212982,1.119242787
14.15911882,-2.861815929,-9.449854851,1.171884894
14.16911882,-2.847458839,-9.473783493,1.104885817
14.17911882,-2.713460922,-9.459425926,1.201196909
14.18911882,-2.684746981,-9.494122505,1.316052437
14.19911882,-2.69850564,-9.504291534,1.426122308
14.20911882,-2.736790895,-9.404989243,1.599003673
14.21911882,-2.793620348,-9.311071396,1.886740685
14.22911882,-2.81695056,-9.192625999,2.136192322
14.23911882,-2.840878725,-9.087940216,2.165504456
14.24911882,-2.740978241,-8.886942863,2.162513494
14.25911882,-2.678765059,-8.794819832,2.000399828
14.26911882,-2.722434044,-8.870193481,1.803590059
14.27911882,-2.947359324,-8.96889782,1.509871125
14.28911882,-2.981456995,-9.005986214,1.341775298
14.29911882,-2.914458036,-8.981459618,1.232303619
14.30911882,-2.885744095,-8.808578491,1.176072359
14.31911882,-2.857628345,-8.544769287,1.048654556
14.32911882,-2.594418049,-8.621937752,1.216750264
14.33911882,-2.393420935,-8.397610664,1.343569875
14.34911882,-2.120639086,-8.001599312,1.567298889
14.35911882,-1.780858278,-7.664210796,1.987239242
14.36911882,-1.828116536,-7.575676441,2.289333105
14.37911882,-2.148156643,-7.572087288,2.493919373
14.38911882,-2.568096876,-7.674380302,2.682952404
14.39911882,-3.041277647,-7.706085205,3.112463951
14.40911882,-3.288934708,-7.51346302,3.668197155
14.41911882,-3.287738323,-7.479365349,4.357928276
14.42911882,-2.756531715,-7.293323517,4.509274483
14.43911882,-1.7138592,-7.136593342,4.806582451
14.44911882,-0.8638089895,-6.822535515,4.428516388
14.45911882,-0.8638089895,-6.801598549,4.213162422
14.46911882,-1.663609982,-6.960123062,3.443271875
14.47911882,-2.515454769,-7.275377274,3.145365477
14.48911882,-3.299104214,-7.482954502,3.414557934
14.49911882,-3.643072367,-7.215556622,3.462414265
14.50911882,-4.050450325,-7.504489899,2.865405083
14.51911882,-4.324428558,-7.328019142,2.16131711
14.52911882,-4.807180882,-7.462017536,2.154138565
14.53911882,-4.189832687,-7.196413994,2.598605394
14.54911882,-3.395415306,-6.896114826,2.905484915
14.55911882,-2.983849764,-6.516254425,3.43609333
14.56911882,-2.499303341,-6.071787357,4.312464714
14.57911882,-2.137987137,-5.747560024,6.049055576
14.58911882,-2.155334949,-5.505286694,7.176074982
14.59911882,-1.9585253,-5.665007591,7.481758118
14.60911882,-1.622931957,-6.447460651,7.828119278
14.61911882,-1.535593987,-7.637291908,8.299505234
14.62911882,-1.420140266,-8.413164139,8.434102058
14.63911882,-2.163709879,-9.337391853,6.955337048
14.64911882,-1.357926846,-9.484550476,8.317451477
14.65911882,-1.675574064,-9.866804123,9.721440315
14.66911882,-1.747956991,-10.13659477,9.26919651
14.67911882,-1.126421213,-9.805787086,9.216554642
14.68911882,-0.7387840152,-9.544969559,9.607182503
14.69911882,-0.342771858,-8.509475708,9.462417603
14.70911882,0.06340979785,-7.457231998,9.614361763
14.71911882,-0.7064808607,-8.222336769,9.395418167
14.72911882,-1.700698733,-9.576076508,9.100502968
14.73911882,-2.938984394,-11.23490047,8.682954788
14.74911882,-3.910470486,-12.03948689,7.91306448
14.75911882,-4.772484779,-12.58505058,7.034300327
14.76911882,-1.928615093,-10.41954613,7.021139622
14.77911882,-1.204187989,-10.3663063,8.508278847
14.78911882,-1.645065546,-10.2149601,8.000402451
14.79911882,-1.776072621,-9.524630547,7.031907558
14.80911882,-0.8937192559,-7.776673794,6.199205399
14.81911882,0.6502495408,-7.19581604,6.127420425
14.82911882,1.747956991,-8.781061172,7.275377274
14.83911882,1.278963685,-9.117850304,6.677769661
14.84911882,0.1142572835,-8.420342445,5.226522923
14.85911882,-1.227517962,-8.426324844,3.727419376
14.86911882,-1.612762451,-6.295516491,2.705085993
14.87911882,-1.94177556,-5.40000248,3.37986207
14.88911882,-2.012363911,-4.205984116,4.498506546
14.89911882,-2.021935225,-3.201596737,4.624129772
14.90911882,-1.712064624,-2.562713146,4.299304008
14.91911882,-1.081555843,-1.829312921,4.205984116
14.92911882,-0.4546363056,-1.659422517,4.616353035
14.93911882,-0.03290131316,-2.120639086,5.007579803
14.94911882,-0.199800685,-1.941177368,5.285745144
14.95911882,-0.3996013701,-1.743171334,5.774479389
14.96911882,-0.5545366406,-2.615355253,4.413561344
14.97911882,0.799800992,-3.895515203,1.954337835
14.98911882,1.954337835,-3.341576815,0.745962441
14.99911882,2.030309916,-2.091326952,0.5814558864
15.00911882,1.004387259,-1.917847395,1.823929071
15.01911882,-1.440479279,-1.431506157,4.043870449
15.02911882,-3.026920557,-0.1884347796,7.852645874
15.03911882,1.064806104,1.082752228,10.12223816
15.04911882,3.735794306,3.303291559,12.7567358
15.05911882,5.072185993,3.507279873,13.96032524
15.06911882,6.507281303,4.0127635,14.51007652
15.07911882,7.937591076,4.718048096,15.1663084
15.08911882,9.945767403,5.185246468,17.93540192
15.09911882,13.15872955,5.644070625,23.73022079
15.10911882,18.80040741,6.75972414,34.98306656
15.11911882,22.59063911,8.766105652,45.9188652
15.12911882,22.55594254,11.24088287,45.8434906
15.13911882,15.22732544,6.602396011,31.43451118
15.14911882,7.664210796,-2.314457655,18.45823479
15.15911882,-1.39022994,-14.25703526,7.759923935
15.16911882,-7.544569969,-17.4436779,3.756133318
15.17911882,-9.622138023,-10.98006535,-4.46620369
15.18911882,-0.756131947,-0.5880361795,-9.700503349
15.19911882,8.769096375,14.30907917,-8.213961601
15.20911882,12.34337521,20.48375893,-4.923830986
15.21911882,12.86142159,18.88953972,-1.656431437
15.22911882,7.978867054,12.07537937,-1.015154958
15.23911882,2.469393015,7.78325367,14.10150242
15.24911882,3.577269793,7.194619656,10.42492962
15.25911882,4.866403103,7.780262947,6.554539204
15.26911882,8.799007416,5.800800323,4.478765965
15.27911882,11.50050354,2.502892494,3.396013498
15.28911882,9.903892517,-0.3577269912,2.993421078
15.29911882,5.892325878,-1.742573142,2.72961235
15.30911882,4.729413986,0.02751746029,2.669193745
15.31911882,4.861617565,4.063013077,2.561516523
15.32911882,4.93878603,5.479563713,3.298506021
15.33911882,4.574478626,6.968497753,3.200998545
15.34911882,5.135595798,9.740582466,2.30189538
15.35911882,6.174080849,10.01994514,2.982653379
15.36911882,5.413163185,9.177671432,2.078764677
15.37911882,5.19182682,8.712865829,1.409372568
15.38911882,4.335196495,8.838488579,1.048056364
15.39911882,3.026322365,8.896514893,1.564906001
15.40911882,2.124228239,8.405985832,2.59740901
15.41911882,1.451845169,7.973483086,3.487539053
15.42911882,0.3254238665,6.780063152,4.395017147
15.43911882,2.218744755,7.051050186,4.198207378
15.44911882,3.238087177,7.419544697,5.124229908
15.45911882,3.789632797,7.461419106,6.069394588
15.46911882,4.278964996,7.070790768,6.677171707
15.47911882,4.762315273,6.799803734,7.132406235
15.48911882,5.207978249,6.239883423,7.211967468
15.49911882,5.240281582,5.683551788,6.628716946
15.50911882,5.249852657,5.260022163,6.267400742
15.51911882,4.846662045,5.005784988,5.517251015
15.52911882,4.456632137,4.113262177,3.58504653
15.53911882,4.484747887,3.813561201,3.348157167
15.54911882,5.102694511,4.786243439,4.0127635
15.55911882,4.728815556,5.681159019,3.964907169
15.56911882,4.240081787,6.393023968,3.35413909
15.57911882,4.627718925,7.060023308,3.848257065
15.58911882,5.364708424,6.862017155,4.247260094
15.59911882,5.373681545,7.284350395,4.039682865
15.60911882,5.379065514,7.695317745,4.180859566
15.61911882,5.355136871,7.909475327,4.316651821
15.62911882,4.700101852,7.96690321,4.275974274
15.63911882,3.858426571,7.936394691,4.415954113
15.64911882,3.007778168,7.575676441,4.616353035
15.65911882,1.89391911,6.962515831,4.575077057
15.66911882,1.344168067,6.407381058,4.444668293
15.67911882,1.1820544,5.980860233,4.503292084
15.68911882,1.406381488,6.210571289,4.558327198
15.69911882,1.975873351,6.745965004,4.760520458
15.70911882,1.93340075,6.920042992,5.182853699
15.71911882,1.532602906,6.777669907,5.702096462
15.72911882,1.730010748,5.907280922,6.377470493
15.73911882,1.812563181,5.72123909,7.027719975
15.74911882,2.21156621,5.456233978,8.162516594
15.75911882,2.348555326,4.479363918,9.741779327
15.76911882,2.991028309,3.723232031,10.6540432
15.77911882,3.577867985,3.208775282,9.546764374
15.78911882,4.133002758,3.03350091,7.101299286
15.79911882,3.457030535,2.629712105,5.745765209
15.80911882,2.093121529,2.592623234,5.342574596
15.81911882,0.8997012973,2.800798893,6.402595043
15.82911882,0.2464607358,2.897708178,7.607381344
15.83911882,0.2919243574,3.413959742,9.166903496
15.84911882,1.351346612,5.058426857,11.1876421
15.85911882,2.519642353,5.458626747,12.34397411
15.86911882,3.414557934,4.090530396,12.38704491
15.87911882,4.105485439,0.7956135273,12.85663605
15.88911882,3.415156126,1.061216831,14.61835194
15.89911882,4.634299278,-0.380458802,14.22592926
15.90911882,4.533202648,-4.353142738,12.77288723
15.91911882,3.632304668,-9.08435154,13.08455276
15.92911882,2.549552441,-10.60558796,14.33958817
15.93911882,3.412165165,-10.90170002,18.08076668
15.94911882,5.012365341,-10.38544846,22.96451759
15.95911882,3.266202927,-9.662816048,22.73779678
15.96911882,-2.76909399,-6.134000778,20.17508507
15.97911882,-4.420141697,-2.723032236,14.84148216
15.98911882,-4.599005222,-0.5312066078,11.10090256
15.99911882,-3.876372576,2.398206472,9.580264091
16.00911882,-2.903690338,2.188236237,8.078767776
16.01911882,-2.398804665,3.897907972,4.24666214
16.02911882,-0.9571290612,3.846462488,5.779264927
16.03911882,-0.499501735,3.375076294,4.686343193
16.04911882,-0.4630111754,2.630310297,3.652045488
16.05911882,-0.5401797295,1.744367719,2.913859844
16.06911882,-0.1860419661,0.5060819983,2.74935317
16.07911882,0.4558327198,-0.3966103494,3.315854073
16.08911882,0.9882357717,-0.941575706,4.042075634
16.09911882,1.822134495,-1.28315115,5.216353416
16.10911882,2.374876499,-1.286740422,6.640681267
16.11911882,2.778067112,-1.259222865,7.604988575
16.12911882,3.29551506,-1.042074203,8.197212219
16.13911882,3.936193228,-0.7328019142,8.503493309
16.14911882,4.639683247,-0.2937189937,8.781659126
16.15911882,4.806582451,0.06041877344,8.799007416
16.16911882,4.36211586,1.26341033,9.264410973
16.17911882,4.821537495,1.827518344,9.447462082
16.18911882,4.912465096,2.423929453,9.710074425
16.19911882,4.956133842,2.307877541,9.905687332
16.20911882,4.932205677,2.273779631,9.958329201
16.21911882,5.334199905,2.096112728,10.11625576
16.22911882,6.003592014,1.715055585,9.992427826
16.23911882,6.500700951,1.447657704,9.920642853
16.24911882,6.380461693,1.583450437,9.595218658
16.25911882,5.936593056,0.8925228715,9.866804123
16.26911882,6.47796917,0.3768695593,10.45005512
16.27911882,5.647659779,-0.1932204217,11.1948204
16.28911882,4.864608288,-0.3272185028,11.83729362
16.29911882,4.015156269,-0.007776673418,12.70768261
16.30911882,3.236292601,0.313459754,13.24307728
16.31911882,2.389233351,0.8356932998,13.03250885
16.32911882,1.98963201,1.427916884,11.65543938
16.33911882,1.98963201,1.427916884,11.65543938
16.34911882,1.227517962,2.307279348,8.009375572
16.35911882,0.8243274093,2.428116798,7.036693096
16.36911882,0.6520441771,2.486740828,6.811169624
16.37911882,0.8626125455,2.279163599,7.103094101
16.38911882,1.098305583,1.997408748,7.834699631
16.39911882,1.103689432,1.851446509,8.169096947
16.40911882,1.329213023,1.496112347,8.359326363
16.41911882,1.305284739,0.756131947,8.057231903
16.42911882,1.635494232,0.2955136001,8.290532112
16.43911882,1.75034976,0.204586342,8.333602905
16.44911882,2.061416626,0.2865405083,8.263014793
16.45911882,2.25703001,0.4390829504,8.370093346
16.46911882,2.377269268,1.158724308,8.868398666
16.47911882,2.273181438,0.8739784956,9.28295517
16.48911882,2.650649309,0.7543373108,9.340981483
16.49911882,2.565105915,0.8871390224,9.504291534
16.50911882,2.651845694,0.6454638839,9.876974106
16.51911882,2.843869686,-0.2644068897,9.991230965
16.52911882,2.848655462,0.509073019,10.2837534
16.53911882,2.868396044,0.5551348329,10.53320503
16.54911882,2.958725214,0.4839483798,10.51346493
16.55911882,3.145365477,0.4127618968,10.38963604
16.56911882,3.355335474,0.35174492,10.29392338
16.57911882,3.570689678,0.4618147612,10.30050373
16.58911882,3.85244441,0.6197410822,10.28315544
16.59911882,3.828516245,0.7680960894,10.29392338
16.60911882,3.694518089,0.8590233326,10.27956581
16.61911882,3.522234917,0.9367900491,10.0779705
16.62911882,3.34038043,1.008574724,10.04447079
16.63911882,3.162713289,1.116251707,9.690333366
16.64911882,2.989831924,1.329811215,9.154341698
16.65911882,3.022135019,1.485942841,8.686544418
16.66911882,3.203989506,1.60678041,8.505886078
16.67911882,4.313661098,1.133001566,8.674580574
16.68911882,3.217748165,1.597807288,8.424530029
16.69911882,2.944368362,1.797608018,7.864609718
16.70911882,3.279363394,1.740180254,7.874779224
16.71911882,3.514458179,1.483550072,8.405985832
16.72911882,3.190230846,1.15094769,8.766105652
16.73911882,2.974876642,0.9403793216,8.697312355
16.74911882,2.864208698,0.8943174481,8.408976555
16.75911882,3.184248686,0.9583254457,8.195417404
16.76911882,3.543172121,1.024726272,8.321639061
16.77911882,3.352344513,0.9463613629,8.535796165
16.78911882,3.391227961,0.9780662656,8.890532494
16.79911882,3.458226919,1.014556766,9.130413055
16.80911882,3.425325632,0.9469595551,9.235098839
16.81911882,3.009572744,0.9643075466,9.410971642
16.82911882,2.899502754,0.6538388133,9.30807972
16.83911882,2.679363251,0.8596215248,9.293723106
16.84911882,2.569891453,0.7633104324,9.441479683
16.85911882,3.192025423,0.680758059,9.672985077
16.86911882,3.923630953,0.6334998012,9.646664619
16.87911882,3.942773581,0.8865407705,9.744172096
16.88911882,3.182454109,0.8177471161,9.918250084
16.89911882,3.16869545,0.8548358679,10.10488987
16.90911882,3.015554667,0.8219345808,10.04686451
16.91911882,2.776272535,0.8416753411,9.940383911
16.92911882,2.617748022,0.9146564603,9.729815483
16.93911882,2.555534601,0.9493523836,9.52881813
16.94911882,2.359323025,1.059422255,9.433105469
16.95911882,2.449652195,1.17068851,9.299705505
16.96911882,2.578864574,1.232901812,9.272188187
16.97911882,2.745764017,1.271785259,9.210572243
16.98911882,2.798406124,1.253240824,9.191430092
16.99911882,2.769692183,1.205384374,9.114261627
17.00911882,2.78883481,1.220339537,9.014361382
17.01911882,2.831905603,1.24965167,8.980861664
17.02911882,2.793620348,1.20179522,8.98026371
17.03911882,2.836691141,1.24965167,8.947361946
17.04911882,2.894119024,1.229910851,9.047860146
17.05911882,2.860619545,1.211366415,8.971290588
17.06911882,2.903690338,1.216152072,8.995218277
17.07911882,2.855833769,1.143171072,9.109476089
17.08911882,2.779263496,1.037886858,9.132805824
17.09911882,2.798406124,1.047458172,9.137591362
17.10911882,2.937189817,1.047458172,9.1860466
17.11911882,3.067000389,1.089332461,9.339784622
17.12911882,2.976073265,1.022333503,9.401400566
17.13911882,3.004786968,0.9493523836,9.511469841
17.14911882,3.004786968,0.9110672474,9.558728218
17.15911882,3.00538516,0.8721838593,9.620942116
17.16911882,3.014358282,0.8727820516,9.577870369
17.17911882,3.000001431,0.8775677085,9.534799576
17.18911882,2.919243574,0.8871390224,9.572486877
17.19911882,2.866003275,0.9062815905,9.515059471
17.20911882,2.870789051,0.9068797827,9.424132347
17.21911882,2.827718258,0.8925228715,9.385847092
17.22911882,2.803789854,0.8835497499,9.342177391
17.23911882,2.875574589,0.9122636318,9.381061554
17.24911882,2.909074068,0.8739784956,9.347561836
17.25911882,2.909074068,0.8644071817,9.318847656
17.26911882,2.80857563,0.8273184299,9.184251785
17.27911882,2.78883481,0.8518448472,9.08853817
17.28911882,2.774477959,0.9284151793,9.065208435
17.29911882,2.817548752,1.067198873,9.080163956
17.30911882,2.827120066,1.11445713,9.171689034
17.31911882,2.799004316,1.113858938,9.238688469
17.32911882,2.779861689,1.089930773,9.266803741
17.33911882,2.80857563,1.027717352,9.271589279
17.34911882,2.90428853,0.9744769931,9.31944561
17.35911882,2.827718258,0.9409775138,9.352347374
17.36911882,2.779861689,0.9409775138,9.361918449
17.37911882,2.741576433,0.9696913958,9.328418732
17.38911882,2.732005358,1.026520967,9.381659508
17.39911882,2.751147747,1.050449133,9.37687397
17.40911882,2.755933523,1.050449133,9.386445045
17.41911882,2.760719061,1.064806104,9.424730301
17.42911882,2.755933523,1.012163997,9.410373688
17.43911882,2.69850564,0.9355936646,9.45224762
17.44911882,2.693720102,0.9451649189,9.443274498
17.45911882,2.722434044,0.9643075466,9.433703423
17.46911882,2.69850564,0.9595218897,9.385847092
17.47911882,2.732005358,0.9601200819,9.309276581
17.48911882,2.760719061,0.9936196208,9.337990761
17.49911882,2.727219582,0.9936196208,9.318847656
17.50911882,2.765504837,0.9840483069,9.333204269
17.51911882,2.779861689,0.926620543,9.352347374
17.52911882,2.736790895,0.8500502706,9.32303524
17.53911882,2.722434044,0.8458628058,9.260223389
17.54911882,2.813361168,0.912861824,9.270991325
17.55911882,2.832503796,0.955334425,9.333204269
17.56911882,2.832503796,0.9840483069,9.309874535
17.57911882,2.861217737,1.037288666,9.285946846
17.58911882,2.775076151,1.022333503,9.309874535
17.59911882,2.751147747,1.003789067,9.270991325
17.60911882,2.80857563,0.9649057388,9.376275063
17.61911882,2.818146944,0.9499505758,9.448060036
17.62911882,2.789433002,0.9170492887,9.357132912
17.63911882,2.755933523,0.8500502706,9.35174942
17.64911882,2.751147747,0.8931210637,9.35174942
17.65911882,2.79421854,0.9068797827,9.414560318
17.66911882,2.760719061,0.9690931439,9.414560318
17.67911882,2.736790895,0.9601200819,9.361918449
17.68911882,2.837289333,1.041476011,9.324232101
17.69911882,2.789433002,1.017547846,9.329017639
17.70911882,2.765504837,0.9984052777,9.342776299
17.71911882,2.770290375,0.9744769931,9.352347374
17.72911882,2.775076151,0.9260223508,9.400203705
17.73911882,2.765504837,0.9212366939,9.433703423
17.74911882,2.727219582,0.8973084688,9.399605751
17.75911882,2.722434044,0.9403793216,9.381061554
17.76911882,2.732005358,0.97926265,9.352347374
17.77911882,2.727219582,0.9744769931,9.342776299
17.78911882,2.717648268,0.9409775138,9.352347374
17.79911882,2.693720102,0.926620543,9.346963882
17.80911882,2.693720102,0.9170492887,9.32303524
17.81911882,2.693720102,0.926620543,9.32303524
17.82911882,2.746362209,0.950548768,9.337990761
17.83911882,2.746362209,0.950548768,9.337990761
17.84911882,2.779861689,0.9649057388,9.352347374
17.85911882,2.775076151,0.9936196208,9.314062119
17.86911882,2.799004316,1.022333503,9.31944561
17.87911882,2.751147747,0.9846464992,9.280562401
17.88911882,2.736790895,0.9649057388,9.309276581
17.89911882,2.732005358,0.950548768,9.323633194
17.90911882,2.779861689,0.9744769931,9.309276581
17.91911882,2.827718258,0.9409775138,9.328418732
17.92911882,2.803789854,0.902692318,9.299705505
17.93911882,2.832503796,0.9463613629,9.280562401
17.94911882,2.755933523,0.9074779749,9.289535522
17.95911882,2.727219582,0.8979067206,9.299106598
17.96911882,2.760719061,0.9074779749,9.337391853
17.97911882,2.627319336,0.8494520187,9.44207859
17.98911882,2.669791937,0.8494520187,9.36550808
17.99911882,2.703291416,0.8063812256,9.41336441
18.00911882,2.722434044,0.8542376757,9.380462646
18.01911882,2.79421854,0.9122636318,9.371489525
18.02911882,2.732005358,0.8877372146,9.385248184
18.03911882,2.708076954,0.8979067206,9.361320496
18.04911882,2.799004316,0.9421738982,9.180064201
18.05911882,2.655434847,0.9463613629,9.208179474
18.06911882,2.670390129,0.9535398483,9.629914284
18.07911882,2.833101988,0.9332008362,9.774082184
18.08911882,2.82831645,0.9475577474,9.798010826
18.09911882,2.73260355,0.9014959335,9.485747337
18.10911882,2.71286273,0.8638089895,9.404391289
18.11911882,2.732005358,0.8733802438,9.394820213
18.12911882,2.693720102,0.8063812256,9.36550808
18.13911882,2.693720102,0.860219717,9.260223389
18.14911882,2.540579557,0.8883354068,9.293723106
18.19253399,-2.953341246,-9.380462646,0.7220342159
18.20253399,-3.054438114,-9.254839897,0.5688936114
18.21253399,-3.001796007,-9.192625999,0.5599204898
18.22253399,-3.09272337,-9.230313301,0.4875376225
18.23253399,-3.049652576,-9.253643036,0.3726821244
18.24253399,-3.097508907,-9.273384094,0.4492524564
18.25253399,-3.260220766,-9.335597992,0.4432703853
18.26253399,-3.126222849,-9.206384659,0.4348955154
18.27253399,-3.18843627,-9.215956688,0.4157529473
18.28253399,-3.116651535,-9.18245697,0.4737788737
18.29253399,-3.09272337,-9.244669914,0.4875376225
18.30253399,-3.064009428,-9.254241943,0.4492524564
18.31253399,-3.059223652,-9.235098839,0.4157529473
18.32253399,-3.068794966,-9.196813583,0.4546363056
18.33253399,-3.035295486,-9.196813583,0.4642075896
18.34253399,-3.087937593,-9.268598557,0.4636093974
18.35253399,-3.087937593,-9.263813019,0.4731806815
18.36253399,-3.111865759,-9.197412491,0.5216353536
18.37253399,-3.159722328,-9.197412491,0.5353940725
18.38253399,-3.139981508,-9.312267303,0.5778666735
18.39253399,-3.139981508,-9.36550808,0.6065805554
18.40253399,-3.092125177,-9.298508644,0.5928218365
18.41253399,-3.111267567,-9.255437851,0.6263213158
18.42253399,-3.087339401,-9.241679192,0.7226324677
18.43253399,-3.15433836,-9.289535522,0.717248559
18.44253399,-3.05862546,-9.327222824,0.6885347366
18.45253399,-3.07298255,-9.346364975,0.6496513486
18.46253399,-3.092125177,-9.273982048,0.5593222976
18.47253399,-3.053839922,-9.265008926,0.6167500615
18.48253399,-3.068196774,-9.36550808,0.6352944374
18.49253399,-3.05862546,-9.374481201,0.5730810165
18.50253399,-3.05862546,-9.259625435,0.5784648657
18.51253399,-3.125624657,-9.17886734,0.6173482537
18.52253399,-3.197409153,-9.126823425,0.6843472719
18.53253399,-3.240479946,-9.20758152,0.6454638839
18.54253399,-3.254837036,-9.241081238,0.6305087805
18.55253399,-3.254837036,-9.212367058,0.6023930907
18.56253399,-3.197409153,-9.174081802,0.6263213158
18.57253399,-3.178266764,-9.217152596,0.6502495408
18.58253399,-3.197409153,-9.275178909,0.7166503668
18.59253399,-3.16869545,-9.270991325,0.8177471161
18.60253399,-3.211168051,-9.223732948,0.8703892231
18.61253399,-3.192025423,-9.185447693,0.9092726111
18.62253399,-3.163909674,-9.262018204,0.8703892231
18.63253399,-3.163909674,-9.314062119,0.8219345808
18.64253399,-3.183052301,-9.299106598,0.7597211599
18.65253399,-3.15433836,-9.251250267,0.7411768436
18.66253399,-3.087339401,-9.222537041,0.7513462901
18.67253399,-3.135195971,-9.23270607,0.798604548
18.68253399,-3.211766243,-9.193822861,0.7651050687
18.69253399,-3.26440835,-9.169894218,0.7507480979
18.70253399,-3.293122053,-9.222537041,0.6879364848
18.71253399,-3.254837036,-9.202795982,0.6215356588
18.72253399,-3.230908871,-9.154939651,0.6167500615
18.73253399,-3.245265722,-9.154939651,0.6406782866
18.74253399,-3.221337557,-9.198608398,0.6981059909
18.75253399,-3.187838078,-9.202795982,0.6693921089
18.76253399,-3.183052301,-9.188439369,0.6502495408
18.77253399,-3.216551781,-9.221938133,0.6406782866
18.78253399,-3.197409153,-9.231510162,0.6406782866
18.79253399,-3.192623615,-9.227322578,0.6981059909
18.80253399,-3.16869545,-9.212965012,0.7555337548
18.81253399,-3.197409153,-9.217751503,0.7603194118
18.82253399,-3.183052301,-9.194420815,0.7842476368
18.83253399,-3.130410194,-9.170493126,0.8039883971
18.84253399,-3.125624657,-9.20399189,0.8422735929
18.85253399,-3.187838078,-9.227920532,0.798604548
18.86253399,-3.211766243,-9.194420815,0.8321040869
18.87253399,-3.235694408,-9.180064201,0.8464609981
18.88253399,-3.216551781,-9.213563919,0.8464609981
18.89253399,-3.230908871,-9.227920532,0.7651050687
18.90253399,-3.278765202,-9.227920532,0.7597211599
18.91253399,-3.302693367,-9.223134995,0.7980063558
18.92253399,-3.331407309,-9.213563919,0.7549355626
18.93253399,-3.317050457,-9.184251785,0.7363911867
18.94253399,-3.293122053,-9.184849739,0.7746763229
18.95253399,-3.269193888,-9.151350021,0.8081758618
18.96253399,-3.297907829,-9.189635277,0.8273184299
18.97253399,-3.350549936,-9.23270607,0.7692924738
18.98253399,-3.34576416,-9.23270607,0.7549355626
18.99253399,-3.336193085,-9.247062683,0.7788637877
19.00253399,-3.336193085,-9.23270607,0.7788637877
19.01253399,-3.302693367,-9.184849739,0.793818891
19.02253399,-3.269193888,-9.147162437,0.851246655
19.03253399,-3.278765202,-9.122636795,0.8470591903
19.04253399,-3.254837036,-9.141778946,0.8327022791
19.05253399,-3.268595695,-9.195018768,0.879960537
19.06253399,-3.273979664,-9.23270607,0.822532773
19.07253399,-3.235694408,-9.218947411,0.8608179688
19.08253399,-3.225524902,-9.204590797,0.8847461939
19.09253399,-3.269193888,-9.136993408,0.8518448472
19.10253399,-3.273381472,-9.089735031,0.8997012973
19.11253399,-3.34038043,-9.075378418,0.9284151793
19.12253399,-3.402593851,-9.113663673,0.9134600163
19.13253399,-3.440878868,-9.17109108,0.9032905698
19.14253399,-3.445664644,-9.218947411,0.8697910309
19.15253399,-3.397808075,-9.199206352,0.8123632669
19.16253399,-3.345165968,-9.185447693,0.8464609981
19.17253399,-3.34038043,-9.190233231,0.9230313301
19.18253399,-3.306880951,-9.224330902,0.9613165259
19.19253399,-3.37387991,-9.229117393,0.994217813
19.20253399,-3.43609333,-9.24407196,1.037288666
19.21253399,-3.397209883,-9.249456406,1.142572761
19.22253399,-3.383451223,-9.253643036,1.094716311
19.23253399,-3.402593851,-9.219545364,1.013360381
19.24253399,-3.402593851,-9.181260109,1.008574724
19.25253399,-3.402593851,-9.205188751,0.9990034699
19.26253399,-3.397808075,-9.181260109,0.965503931
19.27253399,-3.407379389,-9.123832703,0.9996016622
19.28253399,-3.431307554,-9.118449211,0.879960537
19.29253399,-3.354737282,-9.132805824,0.8656035662
19.30253399,-3.312264681,-9.160921097,0.7746763229
19.31253399,-3.178266764,-9.227920532,0.7842476368
19.32253399,-3.068196774,-9.242277145,0.8709874153
19.33253399,-3.05324173,-9.305088997,0.9182456732
19.34253399,-3.03888464,-9.358329773,1.004387259
19.35253399,-3.115455151,-9.277571678,1.06660068
19.36253399,-3.144168854,-9.258428574,1.090528965
19.37253399,-3.196810961,-9.220144272,1.06660068
19.38253399,-3.287738323,-9.229117393,0.9756734371
19.39253399,-3.182454109,-9.248857498,1.080957651
19.40253399,-3.269193888,-9.175278664,0.8273184299
19.41253399,-3.202194929,-9.247062683,0.8081758618
19.42253399,-3.183052301,-9.212965012,0.7028916478
19.43253399,-3.268595695,-9.099306107,0.890130043
19.44253399,-3.259024382,-9.1423769,0.9044869542
19.45253399,-3.355335474,-9.069993973,0.8087740541
19.46253399,-3.446262836,-9.089137077,0.7746763229
19.47253399,-3.417548895,-9.146564484,0.7549355626
19.48253399,-3.330809116,-9.218947411,0.860219717
19.49253399,-3.168097258,-9.378069878,1.085145116
19.50253399,-3.062813044,-9.325428009,1.076171994
19.51253399,-3.01974225,-9.383454323,1.234098315
19.52253399,-3.071786165,-9.38465023,1.411167145
19.53253399,-3.067000389,-9.293723106,1.373480201
19.54253399,-3.057429075,-9.212965012,1.541576028
19.55253399,-3.138785124,-9.260822296,1.45483613
19.56253399,-3.200998545,-9.183054924,1.272981644
19.57253399,-3.234498024,-9.079565048,1.560718536
19.58253399,-3.195614576,-8.938388824,1.954337835
19.59253399,-3.138186932,-8.928817749,1.974078655
19.60253399,-3.114258766,-8.894720078,1.878365755
19.61253399,-3.138785124,-8.801998138,1.591825247
19.62253399,-2.846860647,-8.635098457,1.698904037
19.63253399,-2.722434044,-8.478368759,1.892124534
19.64253399,-2.851646423,-8.301300049,1.878365755
19.65253399,-2.827120066,-8.400003433,2.342573404
19.66253399,-2.869592667,-8.554341316,2.551945448
19.67253399,-3.065205812,-8.502297401,2.589632273
19.68253399,-3.208775282,-8.258827209,2.700898647
19.69253399,-3.256033421,-8.231907845,2.949752092
19.70253399,-3.193221807,-8.243872643,3.361915827
19.71253399,-3.292523861,-8.635697365,4.058227062
19.72253399,-3.592225075,-9.032905579,4.700700283
19.73253399,-3.496512175,-8.918647766,4.831109047
19.74253399,-3.234498024,-8.724829674,4.522434711
19.75253399,-3.206980467,-8.825327873,3.793820381
19.76253399,-3.637688637,-8.876773834,3.461816072
19.77253399,-3.656831264,-8.545966148,3.391826153
19.78253399,-3.395415306,-8.091927528,2.830709219
19.79253399,-2.790031195,-7.344171047,1.91365993
19.80253399,-2.589034081,-7.980063438,1.809572101
19.81253399,-2.249253273,-7.459026337,2.029711723
19.82253399,-2.11046958,-7.059424877,2.368296146
19.83253399,-2.114656925,-6.854240417,2.469991207
19.84253399,-2.377269268,-6.93679285,2.645265341
19.85253399,-2.76909399,-7.040282249,3.0981071
19.86253399,-3.016751051,-7.06301403,3.619144201
19.87253399,-3.226123095,-7.042077065,4.054039955
19.88253399,-3.19382,-7.196413994,3.502494097
19.89253399,-2.72961235,-7.48833847,3.54556489
19.90253399,-2.240878344,-7.874779224,4.119842529
19.91253399,-2.172084808,-8.003992081,4.952544689
19.92253399,-2.306082726,-7.900502205,5.234897614
19.93253399,-2.497508526,-7.602595806,4.944169998
19.94253399,-2.560918331,-7.155138016,4.582853794
19.95253399,-2.402992249,-6.854240417,4.71924448
19.96253399,-1.967498422,-6.725626469,4.832305431
19.97253399,-1.804786444,-6.821937561,4.980660439
19.98253399,-2.214557409,-7.012764931,5.557330608
19.99253399,-3.052045345,-7.194021225,5.394618511
20.00253399,-3.468994617,-7.448258877,4.65403986
20.01253399,-3.427120209,-7.821538925,3.914657831
20.02253399,-2.894717216,-7.920841217,4.586442947
20.03253399,-2.161915302,-7.796414375,5.417948723
20.04253399,-1.936391711,-7.74736166,5.970092297
20.05253399,-1.974078655,-7.495516777,6.311667919
20.06253399,-2.093719721,-7.68275547,6.319444656
20.07253399,-2.477169752,-6.256034851,6.217151642
20.08253399,-2.432902336,-7.588238716,6.495915413
20.09253399,-2.4173491,-8.141578674,6.99063158
20.10253399,-2.30189538,-8.913264275,7.172485828
20.11253399,-2.464607239,-7.948358536,7.470392227
20.12253399,-1.637288928,-7.509275436,7.777870178
20.13253399,-0.6514459848,-7.276573658,8.199604988
20.14253399,0.02811566554,-7.106683254,8.62014389
20.15253399,-0.001196411322,-7.100102901,8.361719131
20.16253399,-0.3726821244,-8.056035995,8.809176445
20.17253399,-0.6095715761,-8.608778,9.934401512
20.18253399,-0.6699903607,-6.437889099,8.7032938
20.19253399,-1.149153113,-8.322834969,7.755736351
20.20253399,-1.42971158,-10.42014408,7.947162151
20.21253399,-1.080359459,-10.72762203,8.13320446
20.22253399,-0.7088736892,-10.55713367,10.00319481
20.23253399,-0.6987041831,-7.444669247,11.27258778
20.24253399,-0.9272187948,-6.17946434,9.441479683
20.25253399,-0.7908278704,-5.186442852,8.303692818
20.26253399,-0.6711867452,-4.604389191,8.609375954
20.27253399,-0.2739782035,-4.957928658,8.589634895
20.28253399,0.3170489967,-5.987440586,7.210771084
20.29253399,-0.2685943544,-4.846064091,6.057430744
20.30253399,-1.024128079,-5.708078384,6.082555294
20.31253399,-1.832303882,-6.1429739,5.851647854
20.32253399,-2.181656122,-5.544768333,5.830112457
20.33253399,-1.431506157,-4.403990269,5.586044312
20.34253399,-0.8883354068,-3.556332588,4.856233597
20.35253399,0.1160518974,-2.809772015,5.027918816
20.36253399,1.951346874,-0.9990034699,4.993820667
20.37253399,4.019343853,0.8273184299,7.004988194
20.38253399,5.54058075,2.268395901,7.891529083
20.39253399,6.470192432,1.59840548,8.815158844
20.40253399,7.119245529,1.111466169,7.871190071
20.41253399,7.651648521,1.691725612,6.320641041
20.42253399,8.142775536,2.691925526,5.596213818
20.43253399,7.76949501,3.825525284,5.697908878
20.44253399,7.775477409,4.847260475,6.777071953
20.45253399,9.266205788,5.604588985,9.114859581
20.46253399,11.12722397,5.047659397,9.616155624
20.47253399,14.57288837,7.670193195,9.287142754
20.48253399,17.96710777,10.49192905,12.30150127
20.49253399,19.54397774,10.50748253,17.60878181
20.50253399,16.70489311,7.414759159,17.43889236
20.51253399,13.87179089,4.563112736,12.39183044
20.52253399,12.19980621,3.908675671,7.487142086
20.53253399,12.3679018,3.135794163,4.796412945
20.54253399,11.08415222,2.004587173,0.3649054468
20.55253399,12.24646664,2.928216696,-4.758127689
20.56253399,13.93998623,6.470790863,-9.254241943
20.57253399,13.96032524,9.466006279,-10.58046341
20.58253399,11.8283205,9.916455269,-7.176673412
20.59253399,7.409375191,5.584249973,-3.112463951
20.60253399,6.311069489,6.061019897,0.8608179688
20.61253399,7.47398138,7.231110096,4.415954113
20.62253399,9.678369522,8.373085022,5.001597404
20.63253399,11.86182022,8.333004951,3.994817495
20.64253399,12.1232357,8.765507698,3.069393158
20.65253399,11.70628643,8.495118141,2.572882652
20.66253399,11.26600742,8.187042236,2.056631088
20.67253399,10.39202881,7.261020184,2.29651165
20.68253399,8.889336586,6.346961975,1.403988719
20.69253399,7.08036232,5.84446907,0.3978067636
20.70253399,5.922834396,5.690730572,0.2919243574
20.71253399,4.349553585,5.790630817,0.1956132501
20.72253399,2.690130949,5.575276852,-0.04247260094
20.73253399,1.418345571,4.981258392,-0.08913264424
20.74253399,-0.09690931439,4.304687977,0.03469592705
20.75253399,1.185643673,3.0448668,0.3092723191
20.76253399,3.506681681,2.313261271,1.347757339
20.77253399,5.455037594,2.215753794,2.566302299
20.78253399,6.337988853,1.905285001,4.114458561
20.79253399,6.482754707,1.750947952,5.057230473
20.80253399,6.726822853,2.382055044,5.258825779
20.81253399,7.15573597,3.103491068,4.704289436
20.82253399,7.751548767,4.453042984,4.045066833
20.83253399,7.884350777,5.513661385,3.607180119
20.84253399,7.291528702,5.919843197,3.626322746
20.85253399,6.392425537,6.091528416,3.60478735
20.86253399,5.822933674,6.163911343,3.41635251
20.87253399,5.689534187,6.233901024,3.693919897
20.88253399,5.790630817,6.250650883,4.116253376
20.89253399,5.714658737,6.156134605,4.61814785
20.90253399,4.558327198,6.072385788,4.866403103
20.91253399,3.774079561,5.881557941,4.709074974
20.92253399,3.515056372,5.625525951,4.23230505
20.93253399,2.944368362,5.496313572,3.406183004
20.94253399,2.63389945,5.056034088,3.35413909
20.95253399,2.883351326,4.570291042,3.826123476
20.96253399,3.702294827,4.332803726,4.330410957
20.97253399,4.621138573,4.532006264,4.775475979
20.98253399,5.793622017,5.044668198,5.621338367
20.99253399,6.239284992,5.58066082,6.426523209
21.00253399,5.924628735,5.805585861,7.101897717
21.01253399,5.538187981,5.918646812,7.378866673
21.02253399,4.85982275,5.971887112,7.979465485
21.03253399,4.430311203,5.801398277,8.307282448
21.04253399,4.383052826,5.346164227,8.428717613
21.05253399,4.292125702,4.814957142,8.386843681
21.06253399,4.004986763,4.205385685,7.883752346
21.07253399,4.310071945,4.510470867,7.365108013
21.08253399,4.768895626,4.720440865,7.573882103
21.09253399,4.237689018,5.376672268,7.399205685
21.10253399,3.257827997,5.74337244,7.536194801
21.11253399,1.341177106,5.910870075,8.085348129
21.12253399,-0.8763712645,6.300302029,8.955737114
21.13253399,-2.286342144,6.434299946,9.56411171
21.14253399,-3.037688255,6.446264267,9.053842545
21.15253399,-3.440878868,5.69252491,7.917252064
21.16253399,-3.671188116,4.438685894,7.084549427
21.17253399,-3.107678413,2.134397745,6.038288116
21.18253399,-1.588834286,0.3074777126,4.533202648
21.19253399,-0.5790630579,0.3625126183,5.026124001
21.20253399,1.150349498,1.640878081,7.396812916
21.21253399,2.06261301,-2.044667006,11.40897846
21.22253399,-0.3655036688,-8.778069496,15.60419464
21.23253399,-2.306082726,-12.37926769,17.94377708
21.24253399,-3.699303865,-12.8069849,19.54936028
21.25253399,-3.393022537,-10.41476059,23.47359085
21.26253399,-0.6442674994,-10.33938694,28.57448959
21.27253399,-0.2733799815,-10.53499985,30.05923653
21.28253399,-1.766501307,-8.231309891,27.28595543
21.29253399,-2.632104874,-3.971487284,22.53560448
21.30253399,-3.668795347,-0.6747759581,15.73879051
21.31253399,-2.941377163,0.8644071817,10.85743237
21.32253399,-1.784447432,2.078166485,8.274380684
21.33253399,-0.2584248483,2.950948477,5.919843197
21.34253399,-0.6059823632,2.542972326,3.795016766
21.35253399,-0.3254238665,1.60378933,2.463410854
21.36253399,0.05982056633,1.204786181,1.351346612
21.37253399,0.3936193287,0.7262216806,0.5647061467
21.38253399,0.3595215976,0.2267199457,0.1686939895
21.39253399,0.3463610709,0.04007977992,0.8997012973
21.40253399,0.3493520916,0.2781656384,2.615953445
21.41253399,0.6346961856,1.059422255,4.666602135
21.42253399,0.9672985673,1.655235052,6.639484406
21.43253399,2.054238319,2.381456852,7.744968891
21.44253399,2.785843849,2.429911375,7.757531166
21.45253399,3.311068296,3.113062143,7.203592777
21.46253399,3.510270834,3.671786308,6.71964407
21.47253399,3.400201082,3.687937975,6.364908218
21.48253399,3.505485058,3.577269793,6.484549522
21.49253399,3.529413462,3.304488182,6.559325218
21.50253399,3.606581926,2.743371248,6.709474564
21.51253399,3.817748547,2.431107759,6.937989235
21.52253399,4.301098824,2.196012974,7.125227451
21.53253399,4.880760193,1.843669891,7.661220074
21.54253399,5.688935757,1.938186288,7.909475327
21.55253399,5.86181736,2.319243431,8.261817932
21.56253399,6.494719028,2.417947292,9.328418732
21.57253399,6.772884369,2.821137905,9.925428391
21.58253399,7.012166977,3.492324591,10.51944637
21.59253399,7.192824841,3.988835335,9.972686768
21.60253399,7.264011383,3.599403381,9.563513756
21.61253399,6.637091637,3.042474031,8.983254433
21.62253399,5.742176056,2.469991207,8.544769287
21.63253399,4.805386066,2.221137524,8.492127419
21.64253399,3.32901454,1.789233088,9.201599121
21.65253399,-0.1202393398,-1.158126116,10.18026352
21.66253399,-2.740978241,-4.096512318,12.0717907
21.67253399,-4.59242487,-4.786243439,14.21037579
21.68253399,-5.121836662,-4.750949383,17.60339737
21.69253399,-3.425325632,-4.180859566,19.96930122
21.70253399,-2.241476536,-3.428316593,19.1886425
21.71253399,-0.912861824,-1.771885157,16.32144356
21.72253399,-0.09032905847,-0.3918247223,13.82931805
21.73253399,-0.06759724021,1.133599758,11.00399303
21.74253399,0.2440679073,2.329412937,8.896514893
21.75253399,1.086939692,3.156731367,6.884150982
21.76253399,1.43808639,3.108276606,5.51605463
21.77253399,1.475175142,2.89830637,4.633700848
21.78253399,1.259821177,2.444268227,4.533800602
21.79253399,1.122233868,2.063809633,4.871188641
21.80253399,0.9894321561,1.810768485,5.477170944
21.81253399,0.8524430394,1.49431777,6.345765591
21.82253399,0.6675975323,1.18743825,7.138388157
21.83253399,0.7974081635,0.9990034699,7.491927624
21.84253399,1.284945726,0.8745766878,7.545766354
21.85253399,1.739582062,0.8159525394,7.791030407
21.86253399,2.160718918,0.8392825127,7.970492363
21.87253399,2.48195529,0.9182456732,8.37428093
21.88253399,2.807379246,1.118046403,8.596813202
21.89253399,3.003590584,1.250848055,8.813961983
21.90253399,3.162115097,1.382453322,9.179466248
21.91253399,2.92402935,1.467996716,10.00738239
21.92253399,2.452643156,1.447657704,10.92981529
21.93253399,2.157129526,1.490130305,11.7332058
21.94253399,1.871187329,1.481755376,12.23031521
21.95253399,1.752144337,1.350150228,12.55932808
21.96253399,2.072782516,1.264606714,12.50249863
21.97253399,2.397010088,1.249053478,11.98146152
21.98253399,2.749951363,1.28614223,11.52383423
21.99253399,3.16032052,1.313659668,10.9746809
22.00253399,3.403192043,1.349551916,10.61695385
22.01253399,3.603590965,1.436890006,10.43150997
22.02253399,3.56530571,1.514656782,10.29751205
22.03253399,3.129812002,1.530210137,10.04686451
22.04253399,2.779861689,1.594816327,9.571888924
22.05253399,2.46819663,1.688734531,9.092725754
22.06253399,2.357528448,1.672582984,8.627322197
22.07253399,2.151147604,1.632503271,8.152346611
22.08253399,2.035693884,1.587637782,7.653443336
22.09253399,1.963310957,1.37886405,7.331010342
22.10253399,1.972882271,1.211366415,7.368697166
22.11253399,1.963909149,1.070788145,7.597211838
22.12253399,1.844866276,0.8823533654,7.868797302
22.13253399,1.883749604,0.7603194118,8.294121742
22.14253399,1.984846354,0.6813562512,8.624331474
22.15253399,2.133799553,0.6275177598,8.835497856
22.16253399,2.172084808,0.6221339107,8.940781593
22.17253399,2.368296146,0.7178468108,8.956933022
22.18253399,2.755335331,0.8943174481,9.102895737
22.19253399,2.91804719,0.9990034699,9.252447128
22.20253399,2.947359324,1.026520967,9.468399048
22.21253399,3.014358282,1.044467092,9.665208817
22.22253399,3.129812002,1.057029366,9.938589096
22.23253399,3.096312523,1.032503009,10.01037312
22.24253399,3.020340443,1.012762189,10.15334511
22.25253399,2.900699139,1.021735311,10.17188931
22.26253399,2.838485956,1.006780148,10.24845982
22.27253399,2.651845694,1.107876897,10.20060253
22.28253399,2.523231506,1.116850019,10.20479012
22.29253399,2.446661234,1.131805062,10.13779163
22.30253399,2.446661234,1.155733347,10.15214825
22.31253399,2.551347256,1.237687469,10.06181908
22.32253399,2.569891453,1.325025558,9.827920914
22.33253399,2.478964329,1.30289197,9.597611427
22.34253399,2.42572403,1.293918848,9.454042435
22.35253399,2.358724833,1.332802176,9.37687397
22.36253399,2.29651165,1.366899967,9.276374817
22.37253399,2.253440619,1.377069473,9.132805824
22.38253399,2.310270309,1.445264935,8.989834785
22.39253399,2.271985054,1.408774376,8.730812073
22.40253399,2.261815548,1.500299811,8.611768723
22.41253399,2.309672117,1.485344648,8.683553696
22.42253399,2.334198475,1.461416483,8.750552177
22.43253399,2.367697954,1.335793257,8.907880783
22.44253399,2.397010088,1.238883972,9.089137077
22.45253399,2.358724833,1.147358418,9.160323143
22.46253399,2.39222455,1.137787223,9.208179474
22.47253399,2.454437733,1.156331539,9.309276581
22.48253399,2.430509567,1.117448211,9.333204269
22.49253399,2.349751949,1.064207911,9.45224762
22.50253399,2.335394859,1.064207911,9.476176262
22.51253399,2.297109842,1.101894855,9.547960281
22.52253399,2.30189538,1.15393877,9.643673897
22.53253399,2.355135679,1.11984098,9.768698692
22.54253399,2.383849621,1.109671474,9.854840279
22.55253399,2.388635159,1.124028444,9.830911636
22.56253399,2.369492531,1.10010016,9.811170578
22.57253399,2.355135679,1.100698471,9.782457352
22.58253399,2.331207514,1.105484009,9.744172096
22.59253399,2.350350142,1.110269666,9.739386559
22.60253399,2.368894339,1.153340459,9.706484795
22.61253399,2.325823545,1.125224829,9.643673897
22.62253399,2.39760828,1.082752228,9.591031075
22.63253399,2.416750908,1.059422255,9.45224762
22.64253399,2.497508526,1.079761267,9.323633194
22.65253399,2.48793745,1.089930773,9.199206352
22.66253399,2.50707984,1.10010016,9.117850304
22.67253399,2.492722988,1.10010016,9.113064766
22.68253399,2.449652195,1.095314622,9.112466812
22.69253399,2.50707984,1.104885817,9.108279228
22.70253399,2.459223509,1.05224371,9.141180992
22.71253399,2.430509567,1.075573802,9.155537605
22.72253399,2.50707984,1.128215909,9.189635277
22.73253399,2.52143693,1.133001566,9.213563919
22.74253399,2.478366137,1.132403374,9.294919968
22.75253399,2.459223509,1.117448211,9.337990761
22.76253399,2.450250387,1.078564763,9.466604233
22.77253399,2.402393818,1.039681435,9.543174744
22.78253399,2.359323025,1.044467092,9.571888924
22.79253399,2.316252232,1.068395257,9.538389206
22.80253399,2.368894339,1.087537885,9.586245537
22.81253399,2.340180635,1.110867858,9.610174179
22.82253399,2.378465652,1.125823021,9.59641552
22.83253399,2.383251429,1.1395818,9.615557671
22.84253399,2.354537487,1.110867858,9.677172661
22.85253399,2.287538528,1.043868899,9.647860527
22.86253399,2.273779631,1.024726272,9.652647018
22.87253399,2.258824587,1.024726272,9.609575272
22.88253399,2.239681959,1.044467092,9.528220177
22.89253399,2.321038008,1.107278705,9.504889488
22.90253399,2.311466694,1.121635556,9.45224762
22.91253399,2.287538528,1.165304661,9.399605751
22.92253399,2.272583246,1.175474167,9.279964447
22.93253399,2.310868502,1.151545882,9.270393372
22.94253399,2.306082726,1.084546804,9.274580956
22.95253399,2.325225353,1.098903775,9.279964447
22.96253399,2.353939295,1.046261668,9.298508644
22.97253399,2.358724833,1.07497561,9.308678627
22.98253399,2.440080881,1.094118118,9.275178909
22.99253399,2.416152716,1.089332461,9.270393372
23.00253399,2.339582443,1.094118118,9.275178909
23.01253399,2.373680115,1.098305583,9.375677109
23.02253399,2.340180635,1.140778184,9.45224762
23.03253399,2.340180635,1.097109199,9.562317848
23.04253399,2.335394859,1.077966571,9.552745819
23.05253399,2.340180635,1.001396298,9.528220177
23.06253399,2.230110645,0.9888339639,9.26919651
23.07253399,2.291725874,1.041476011,9.245866776
23.08253399,2.316252232,1.107278705,9.413962364
23.09253399,2.407179594,1.134796143,9.649057388
23.10253399,2.455634356,1.124028444,9.883553505
23.11253399,2.412563324,1.079761267,10.07497978
23.12253399,2.345564365,1.06660068,9.8638134
23.13253399,2.340778828,1.051645517,9.954740524
23.14253399,2.346162558,0.9840483069,10.03549862
23.15253399,2.335993052,0.9559326172,9.973284721
23.16253399,2.144567251,0.9002995491,9.641879082
23.17253399,2.076371908,1.009771109,8.919246674
23.18253399,2.353341103,1.101894855,8.815158844
23.21737609,-3.579662561,-9.162117958,0.9649057388
23.22737609,-3.622733593,-9.123832703,0.8985049129
23.23737609,-3.570091486,-9.12861824,0.9559326172
23.24737609,-3.546163082,-9.090332985,0.9320043921
23.25737609,-3.617947817,-9.095118523,0.9080761671
23.26737609,-3.589233875,-9.075976372,0.8985049129
23.27737609,-3.479164124,-9.046664238,0.8703892231
23.28737609,-3.483949661,-9.108877182,0.8847461939
23.29737609,-3.53718996,-9.151350021,0.7597211599
23.30737609,-3.48933363,-9.113064766,0.7214360237
23.31737609,-3.45583415,-9.14596653,0.7214360237
23.32737609,-3.575475216,-9.155537605,0.7016952634
23.33737609,-3.550948858,-9.10349369,0.7692924738
23.34737609,-3.550948858,-9.108279228,0.7597211599
23.35737609,-3.570091486,-9.113064766,0.7692924738
23.36737609,-3.550948858,-9.113064766,0.8075776696
23.37737609,-3.570091486,-9.098708153,0.7836494446
23.38737609,-3.513261795,-9.117850304,0.7453642488
23.39737609,-3.494119167,-9.175278664,0.7262216806
23.40737609,-3.465405464,-9.179466248,0.7214360237
23.41737609,-3.498904943,-9.194420815,0.7256234884
23.42737609,-3.513261795,-9.227322578,0.7016952634
23.43737609,-3.48933363,-9.223134995,0.7399803996
23.44737609,-3.465405464,-9.266205788,0.7639086246
23.45737609,-3.427120209,-9.189635277,0.7597211599
23.46737609,-3.403192043,-9.08435154,0.8273184299
23.47737609,-3.37387991,-9.046664238,0.8805587292
23.48737609,-3.336193085,-9.027522087,0.8805587292
23.49737609,-3.317050457,-9.046664238,0.8997012973
23.50737609,-3.379263878,-9.118449211,0.8416753411
23.51737609,-3.412165165,-9.175876617,0.8267202377
23.52737609,-3.431307554,-9.23270607,0.8171489239
23.53737609,-3.483949661,-9.266803741,0.8213363886
23.54737609,-3.527020693,-9.228518486,0.8787640929
23.55737609,-3.56530571,-9.176474571,0.9409775138
23.56737609,-3.560520172,-9.142974854,0.9750752449
23.57737609,-3.541377544,-9.114261627,0.9798609018
23.58737609,-3.445664644,-9.071788788,1.037886858
23.59737609,-3.397808075,-9.004789352,1.019342422
23.60737609,-3.378665686,-8.946763992,1.015154958
23.61737609,-3.397808075,-8.875576973,1.034895778
23.62737609,-3.479164124,-8.870193481,0.9768698215
23.63737609,-3.416950703,-8.894122124,0.9385846853
23.64737609,-3.431307554,-8.913264275,0.9577272534
23.65737609,-3.412165165,-8.913862228,1.101296663
23.66737609,-3.32063961,-8.852845192,1.313061476
23.67737609,-3.071786165,-8.806185722,1.476969719
23.68737609,-2.818146944,-8.692526817,1.732403636
23.69737609,-2.731407166,-8.532207489,2.102692842
23.70737609,-2.80259347,-8.285746574,2.515454769
23.71737609,-2.983849764,-8.015955925,2.88993144
23.72737609,-3.227319479,-7.831110477,3.153740168
23.73737609,-3.466601849,-7.922635555,3.195614576
23.74737609,-3.605385542,-8.094321251,3.122035265
23.75737609,-3.528815269,-8.328219414,3.049054146
23.76737609,-3.356531858,-8.333602905,3.131008387
23.77737609,-2.825325251,-7.885547161,3.466003656
23.78737609,-2.394617319,-7.714460373,3.775275946
23.79737609,-2.464607239,-7.414160728,4.701298237
23.80737609,-2.86480689,-6.996015072,5.913861275
23.81737609,-2.669193745,-6.300302029,5.665007591
23.82737609,-1.535593987,-5.438287735,3.443870068
23.83737609,-1.366301775,-5.417948723,1.744367719
23.84737609,-1.284945726,-5.451447964,1.706082582
23.85737609,-1.326820135,-5.422136307,2.405385017
23.86737609,-2.286940336,-5.831308842,2.686541557
23.87737609,-2.646461725,-6.083153248,2.324627161
23.88737609,-2.779861689,-6.312864304,2.288734913
23.89737609,-2.707478762,-5.890531063,2.876172781
23.90737609,-2.76311183,-5.425127029,4.248456478
23.91737609,-3.472583771,-5.05124855,3.280559778
23.92737609,-4.306482315,-5.468796253,4.888536453
23.93737609,-4.121636868,-5.779862881,6.409773827
23.94737609,-3.167499065,-6.277570248,8.029116631
23.95737609,-3.990629911,-7.368697166,10.20718288
23.96737609,-3.763910055,-7.610970497,8.396414757
23.97737609,-2.247458696,-8.19122982,5.740979671
23.98737609,-1.709671736,-8.91146946,3.966701746
23.99737609,-2.42572403,-10.05882835,4.354339123
24.00737609,-2.490330219,-9.79501915,5.845067501
24.01737609,-3.147758245,-9.318249702,7.530810833
24.02737609,-3.811168194,-8.858827591,8.210970879
24.03737609,-3.783052683,-8.565108299,7.906484127
24.04737609,-3.72024107,-8.888737679,8.412566185
24.05737609,-3.896711588,-9.244669914,8.634500504
24.06737609,-4.09172678,-9.739386559,8.894122124
24.07737609,-4.339982033,-10.21555805,9.249456406
24.08737609,-4.005585194,-10.4093771,8.913862228
24.09737609,-3.766901016,-10.63729286,8.702695847
24.10737609,-3.340978622,-10.32742214,8.907281876
24.11737609,-2.737389088,-9.700503349,9.756733894
24.12737609,-2.413759947,-8.815158844,9.050253868
24.13737609,-1.934597135,-8.431708336,9.782457352
24.14737609,-2.035095692,-8.201399803,9.629914284
24.15737609,-1.940579176,-8.212765694,9.208778381
24.16737609,-1.959123492,-8.533403397,9.202198029
24.17737609,-1.787438512,-8.842676163,8.941978455
24.18737609,-1.514656782,-9.101100922,8.970093727
24.19737609,-1.204187989,-9.486345291,8.614759445
24.20737609,-0.5653043389,-9.843474388,7.652246952
24.21737609,-0.01076770201,-10.38185883,7.349554539
24.22737609,0.3308077157,-10.53858948,8.685946465
24.23737609,0.1178465188,-10.56072235,9.934401512
24.24737609,-0.604187727,-10.33878803,12.6245327
24.25737609,-1.029511929,-8.005187988,13.59063435
24.26737609,-1.90229404,-7.475177765,12.14417267
24.27737609,-2.397010088,-7.630711555,10.91067314
24.28737609,-3.199203968,-7.856235027,8.688937187
24.29737609,-3.814159393,-7.911269665,6.670591354
24.30737609,-4.638486862,-8.205587387,5.496912003
24.31737609,-5.141577721,-8.404191017,4.966901779
24.32737609,-5.600999832,-8.009973526,4.656432629
24.33737609,-5.336592674,-7.009175777,3.083750248
24.34737609,-3.930211306,-4.09172678,1.292722464
24.35737609,-2.861815929,-2.623131752,0.08554340899
24.36737609,-2.327618122,-2.509472847,-0.4480560422
24.37737609,-1.678565025,-1.816152334,-1.034895778
24.38737609,-0.7238288522,-0.6580262184,-1.607976794
24.39737609,0.5497509837,-0.17587246,-0.5419743061
24.40737609,1.094716311,0.2560320199,-0.6329016089
24.41737609,0.9960124493,1.236491084,-2.035095692
24.42737609,0.604187727,2.395215511,-1.468594909
24.43737609,0.6017948985,3.270988464,0.08853443712
24.44737609,-0.6999006271,3.996612072,-0.5300102234
24.45737609,-2.755933523,3.256631613,-0.3607180119
24.46737609,-2.764308453,1.716252089,2.512463808
24.47737609,-2.923431158,1.67437768,4.651647091
24.48737609,-0.9984052777,1.149153113,6.202794552
24.49737609,-0.6376872063,-0.8404789567,6.756732941
24.50737609,1.574477315,0.1692921966,3.323630571
24.51737609,4.588237286,0.7052844763,1.427916884
24.52737609,7.494320393,0.4689932466,3.592823267
24.53737609,11.08235836,0.1615155339,7.234101295
24.54737609,17.12303925,-0.7591229677,13.63430309
24.55737609,29.87439156,-2.073380709,21.03051758
24.56737609,45.40620422,1.520638824,39.78306961
24.57737609,47.26901627,17.31685829,71.34140778
24.58737609,32.52384186,27.42294312,60.61797333
24.59737609,21.1088829,15.43789387,28.31486893
24.60737609,14.26720524,4.35852623,11.51067352
24.61737609,-0.6729813814,-14.57528114,7.463811874
24.62737609,-9.400203705,-22.64627266,5.099703312
24.63737609,-4.898705959,-19.90589142,-1.545763373
24.64737609,4.507479668,-3.218346357,-13.81496143
24.65737609,11.60937691,10.7802639,-20.43590164
24.66737609,17.63928986,16.11446381,-18.60718727
24.67737609,18.96969986,16.41177177,-12.50429249
24.68737609,18.06341743,17.5316124,-4.983053207
24.69737609,15.4929285,20.77687836,-0.1740778536
24.70737609,11.53460121,22.0115757,0.8434699774
24.71737609,9.900303841,19.95673943,0.9481559992
24.72737609,2.11046958,11.13679504,3.639483213
24.73737609,-1.216152072,-6.036493301,22.34597206
24.74737609,9.218947411,-5.0793643,12.41276741
24.75737609,11.41615677,-2.71824646,0.2739782035
24.76737609,4.695914268,1.475175142,3.018545866
24.77737609,3.556332588,2.609971285,8.063214302
24.78737609,1.291526079,2.554936409,8.98803997
24.79737609,-0.6927221417,3.453441381,6.649653912
24.80737609,-0.9589236975,4.611567497,5.051846981
24.81737609,-0.6478567123,4.876572609,2.52143693
24.82737609,2.427518606,6.74536705,0.3613162339
24.83737609,3.57128787,6.987640381,-1.537986755
24.84737609,3.453441381,5.893522263,-1.06660068
24.85737609,4.082155228,4.905884743,0.05922235921
24.86737609,3.978067636,3.868596077,0.626919508
24.87737609,4.34775877,4.445864677,1.68574357
24.88737609,4.976472855,5.734399319,3.118446112
24.89737609,5.165505886,5.651846886,4.799404144
24.90737609,5.602196217,6.411568165,5.864210129
24.91737609,5.29292345,5.306084156,6.583851337
24.92737609,5.199005604,3.957130432,7.230511665
24.93737609,5.181059361,3.010769129,7.737192154
24.94737609,5.626722336,4.174877167,8.378468513
24.95737609,5.19182682,4.049253941,8.5148592
24.96737609,5.018945694,5.227719307,8.344370842
24.97737609,4.712664127,5.184050083,8.337790489
24.98737609,4.516452789,4.816154003,8.224729538
24.99737609,4.290929317,4.825126648,7.587042332
25.00737609,4.404588223,4.767699242,6.82133913
25.01737609,5.016552448,4.542773724,6.917650223
25.02737609,5.428716183,4.453640938,7.459624767
25.03737609,5.492724419,4.456632137,8.451449394
25.04737609,5.523232937,4.263411522,9.479764938
25.05737609,5.552545071,4.599603176,10.10429192
25.06737609,5.55194664,5.327619553,10.01336479
25.07737609,5.508875847,6.07836771,10.09950638
25.08737609,4.972883701,6.485147476,10.052248
25.09737609,4.42672205,6.87158823,9.363115311
25.10737609,3.650849104,6.747161865,8.535198212
25.11737609,2.239681959,5.366502762,7.91306448
25.12737609,1.405783296,5.10149765,6.610770702
25.13737609,1.25503552,5.25942421,5.064409256
25.14737609,1.387837172,5.085346222,4.60379076
25.15737609,1.259821177,4.183252335,5.014159679
25.16737609,1.643270969,4.079762459,5.522634506
25.17737609,1.825125456,4.174279213,5.711069584
25.18737609,1.205384374,3.88594389,6.606583118
25.19737609,1.205384374,3.88594389,6.606583118
25.20737609,0.02691925503,2.76311183,7.639086246
25.21737609,-0.4067798555,2.824128866,8.528617859
25.22737609,-0.7651050687,2.606980324,8.736195564
25.23737609,-0.6119644046,1.919043779,8.646464348
25.24737609,-1.000199914,1.004387259,7.911269665
25.25737609,-1.712064624,-1.292124271,7.640282631
25.26737609,0.4253242314,-4.188635826,9.602995872
25.27737609,1.953141451,-3.704089403,11.18225861
25.28737609,3.000599623,-2.754737139,11.78166008
25.29737609,4.70787859,-5.624329567,13.99621773
25.30737609,5.115256786,-7.884350777,16.4781723
25.31737609,4.938187599,-8.127820015,19.37289047
25.32737609,6.861418724,-7.183253765,20.10030746
25.33737609,9.011369705,-7.103094101,22.09113693
25.34737609,8.615956306,-6.533602238,22.83051872
25.35737609,4.774279594,-4.199403763,19.44048691
25.36737609,-0.08733802289,-3.914657831,14.6638155
25.37737609,-2.425125837,-5.396413326,11.76790142
25.38737609,-3.950550079,-6.793821812,8.61655426
25.39737609,-2.717648268,-2.012962103,6.510870457
25.40737609,-0.8548358679,0.1645065546,5.962316036
25.41737609,0.199800685,1.310070395,5.097310543
25.42737609,1.287338614,2.27677083,3.733401537
25.43737609,2.337189436,2.834896564,2.706880569
25.44737609,2.964707375,1.937588096,3.072384357
25.45737609,3.422932863,0.4516452849,5.099703312
25.46737609,3.506681681,0.03768695518,6.165107727
25.47737609,3.357130051,0.9343972206,5.854040623
25.48737609,2.42572403,0.2913261652,6.01376152
25.49737609,2.364706993,-0.4348955154,6.574280262
25.50737609,2.590230465,-0.8356932998,7.185646534
25.51737609,2.883351326,-0.7734799385,7.953144073
25.52737609,3.108874798,-0.5072783828,8.271987915
25.53737609,3.486342669,-0.2003988922,8.294121742
25.54737609,4.098307133,-0.261415869,8.166703224
25.55737609,4.685744762,-0.1782652885,7.906484127
25.56737609,5.239683151,-0.1130608693,7.578667641
25.57737609,5.626722336,-0.05443671346,7.398607731
25.58737609,5.708078384,0.4372883439,7.607979774
25.59737609,5.766104221,0.9936196208,8.186444283
25.60737609,5.452644825,1.645065546,9.563513756
25.61737609,5.24506712,1.816750646,11.20618629
25.62737609,6.206982136,1.966900229,11.73260784
25.63737609,6.534798622,1.842473388,10.28734303
25.64737609,6.403193474,1.429113269,9.00538826
25.65737609,6.726822853,1.217348576,7.712665558
25.66737609,7.309474945,1.253839016,7.355536938
25.67737609,7.97467947,1.853241086,7.984848976
25.68737609,7.155138016,1.240080357,9.471389771
25.69737609,5.026124001,0.1076770201,11.18943691
25.70737609,4.104289055,0.3595215976,12.10708427
25.71737609,3.764508247,0.7280163169,12.07478142
25.72737609,3.577269793,1.04685986,11.55852985
25.73737609,3.355335474,1.418345571,10.35852909
25.74737609,3.285943747,1.659422517,9.287142754
25.75737609,3.256631613,1.959721804,8.752346992
25.76737609,3.461816072,2.195414782,8.553742409
25.77737609,3.623331785,2.384447813,8.244470596
25.78737609,3.412165165,2.49332118,7.607381344
25.79737609,3.608974695,2.500499725,7.996214867
25.80737609,3.555734396,2.569891453,7.670791149
25.81737609,3.517449379,2.511267424,7.818548203
25.82737609,3.16869545,2.353341103,7.777870178
25.83737609,3.05862546,2.05124712,7.847261906
25.84737609,2.930011272,1.872981906,7.984251022
25.85737609,2.686541557,1.528415442,7.986045361
25.86737609,2.471187592,1.280160069,7.878368378
25.87737609,2.375474691,1.15094769,7.886743546
25.88737609,2.227717876,1.015154958,8.143971443
25.89737609,2.300100803,1.151545882,8.547162056
25.90737609,2.415554523,1.287338614,9.017950058
25.91737609,2.47358036,1.361516118,9.387042999
25.92737609,2.445464849,1.389033556,9.583852768
25.93737609,2.589034081,1.350150228,9.665208817
25.94737609,2.656033039,1.239482164,9.765707016
25.95737609,2.804388046,1.043868899,9.702896118
25.96737609,3.076571703,0.9391828775,9.631111145
25.97737609,3.401995659,0.8291130662,9.660423279
25.98737609,3.540779352,0.8243274093,9.656235695
25.99737609,3.516851187,0.8524430394,9.751948357
26.00737609,3.512065411,0.9236295223,9.848259926
26.01737609,3.531208038,1.000199914,9.906285286
26.02737609,3.445664644,0.980459094,9.934401512
26.03737609,3.406781197,0.9816554785,9.814760208
26.04737609,3.483351469,1.068993568,9.590433121
26.05737609,3.559323788,1.045663476,9.518648148
26.06737609,3.712464333,1.007976532,9.466604233
26.07737609,3.81296277,0.9601200819,9.433105469
26.08737609,3.659822226,0.9086744189,9.288339615
26.09737609,3.549154282,0.9523434043,9.183054924
26.10737609,3.553939819,1.076770186,9.131011009
26.11737609,3.534797192,1.1395818,9.069396019
26.12737609,3.525225878,1.177866936,9.007183075
26.13737609,3.458226919,1.183250785,8.906085968
26.14737609,3.495913982,1.197607756,8.916254997
26.15737609,3.586841106,1.221535921,8.921639442
26.16737609,3.6299119,1.250848055,8.912068367
26.17737609,3.519842148,1.194018483,8.777471542
26.18737609,3.567698479,1.223330617,8.691329956
26.19737609,3.658027649,1.295713425,8.63031292
26.20737609,3.748954773,1.342971683,8.654839516
26.21737609,3.863810301,1.390828133,8.660223007
26.22737609,3.892524242,1.386640668,8.631509781
26.23737609,3.825525284,1.357926846,8.650053978
26.24737609,3.777668715,1.329213023,8.583054543
26.25737609,3.753740549,1.31425786,8.678768158
26.26737609,3.706482172,1.29451704,8.769096375
26.27737609,3.696911097,1.289731383,8.80738163
26.28737609,3.73998189,1.274178028,8.936594009
26.29737609,3.740580082,1.230509043,9.065806389
26.30737609,3.71186614,1.153340459,9.136993408
26.31737609,3.678366661,1.067198873,9.150752068
26.32737609,3.625724554,1.019342422,9.174081802
26.33737609,3.573082447,1.048056364,9.131011009
26.34737609,3.544368505,1.062413216,9.140582085
26.35737609,3.52044034,1.10010016,9.188439369
26.36737609,3.501297712,1.095314622,9.231510162
26.37737609,3.33439827,1.037886858,9.21117115
26.38737609,3.238685369,0.9990034699,9.248857498
26.39737609,3.186641455,0.955334425,9.40199852
26.40737609,3.157927752,0.9541380405,9.531210899
26.41737609,3.110071182,0.9786644578,9.488140106
26.42737609,3.095116138,1.031904817,9.330213547
26.43737609,3.138186932,1.094716311,9.306883812
26.44737609,3.214757204,1.156929731,9.302696228
26.45737609,3.233899832,1.204786181,9.317651749
26.46737609,3.20518589,1.171884894,9.226125717
26.47737609,3.162115097,1.205384374,9.221340179
26.48737609,3.147758245,1.238883972,9.216554642
26.49737609,3.099901676,1.210170031,9.197412491
26.50737609,3.052045345,1.181456208,9.18245697
26.51737609,2.980260611,1.158126116,9.086145401
26.52737609,3.004188776,1.143769264,9.076574326
26.53737609,3.123231649,1.177268744,9.043673515
26.54737609,3.180659533,1.168295622,8.953344345
26.55737609,3.228515863,1.183250785,8.938986778
26.56737609,3.262015581,1.197009563,8.991629601
26.57737609,3.300300598,1.196411371,9.05922699
26.58737609,3.266801119,1.196411371,9.078369141
26.59737609,3.276372433,1.177866936,9.034700394
26.60737609,3.405584812,1.216152072,8.98803997
26.61737609,3.496512175,1.259821177,8.988637924
26.62737609,3.568296671,1.230509043,9.050851822
26.63737609,3.640081406,1.225723386,9.098708153
26.64737609,3.635295868,1.186840057,9.160921097
26.65737609,3.601796389,1.128814101,9.217751503
26.66737609,3.525225878,1.167099237,9.232108116
26.67737609,3.467798233,1.128814101,9.188439369
26.68737609,3.491726398,1.148554921,9.150752068
26.69737609,3.510869026,1.177866936,9.083752632
26.70737609,3.549154282,1.18743825,9.01675415
26.71737609,3.539582968,1.177866936,9.078967094
26.72737609,3.496512175,1.15393877,9.045467377
26.73737609,3.482155085,1.138983607,9.164510727
26.74737609,3.44446826,1.085743308,9.231510162
26.75737609,3.343969584,0.9894321561,9.306883812
26.76737609,3.305684566,0.970289588,9.28295517
26.77737609,3.209971666,0.9421738982,9.162715912
26.78737609,3.190829039,0.956530869,9.148359299
26.79737609,3.176471949,1.004985452,9.081359863
26.80737609,3.23330164,1.086939692,9.038887978
26.81737609,3.266801119,1.148554921,9.053842545
26.82737609,3.32901454,1.143769264,9.087342262
26.83737609,3.32901454,1.138385415,9.159127235
26.84737609,3.30089879,1.14795661,9.192625999
26.85737609,3.233899832,1.11445713,9.163912773
26.86737609,3.181257725,1.095314622,9.172885895
26.87737609,3.176471949,1.095912814,9.129815102
26.88737609,3.190829039,1.0863415,9.134600639
26.89737609,3.200400352,1.100698471,9.139386177
26.90737609,3.276970625,1.11445713,9.202198029
26.91737609,3.286541939,1.124028444,9.235696793
26.92737609,3.31525588,1.14795661,9.226125717
26.93737609,3.305684566,1.171884894,9.221938133
26.94737609,3.286541939,1.143171072,9.187840462
26.95737609,3.195614576,1.081555843,9.134600639
26.96737609,3.190829039,1.0863415,9.110671997
26.97737609,3.138186932,1.095912814,9.120243073
26.98737609,3.190829039,1.11445713,9.148957253
26.99737609,3.305684566,1.128215909,9.259625435
27.00737609,3.276970625,1.113858938,9.317052841
27.01737609,3.257827997,1.099501967,9.331410408
27.02737609,3.272184849,1.109073281,9.307481766
27.03737609,3.214757204,1.104287624,9.249456406
27.04737609,3.195614576,1.095314622,9.18245697
27.05737609,3.21954298,1.124626637,9.130413055
27.06737609,3.242872953,1.153340459,9.135198593
27.07737609,3.276372433,1.148554921,9.096913338
27.08737609,3.253042459,1.153340459,9.139984131
27.09737609,3.257827997,1.11445713,9.149555206
27.10737609,3.267399311,1.076171994,9.225527763
27.11737609,3.21954298,1.10010016,9.235098839
27.12737609,3.152543783,1.109671474,9.163313866
27.13737609,3.133401155,1.11984098,9.120243073
27.14737609,3.166302681,1.13419795,9.053244591
27.15737609,3.23330164,1.16769743,9.072985649
27.16737609,3.228515863,1.177268744,9.058628082
27.17737609,3.305086374,1.143769264,9.106484413
27.18737609,3.276970625,1.11445713,9.202198029
27.19737609,3.214757204,1.033101201,9.225527763
27.20737609,3.186043262,1.013360381,9.248857498
27.21737609,3.128615618,1.018146038,9.277571678
27.22737609,3.099901676,1.013360381,9.239286423
27.23737609,3.095116138,1.042074203,9.22492981
27.24737609,3.171686411,1.11445713,9.158528328
27.25737609,3.305684566,1.167099237,9.169296265
27.26737609,3.33439827,1.152742267,9.226723671
27.27737609,3.320041418,1.11445713,9.245268822
27.28737609,3.272184849,1.042672515,9.225527763
27.29737609,3.142972469,1.018146038,9.248857498
27.30737609,3.12383008,1.018146038,9.268000603
27.31737609,3.119044304,1.042074203,9.296713829
27.32737609,3.128615618,1.070788145,9.292527199
27.33737609,3.190829039,1.10010016,9.225527763
27.34737609,3.243471146,1.124028444,9.159127235
27.35737609,3.276970625,1.104885817,9.163912773
27.36737609,3.248256683,1.090528965,9.201599121
27.37737609,3.190829039,1.037886858,9.181859016
27.38737609,3.162115097,1.033101201,9.148359299
27.39737609,3.138186932,1.03848505,9.129216194
27.40737609,3.138186932,1.062413216,9.09571743
27.41737609,3.209373474,1.11984098,9.081958771
27.42737609,3.300300598,1.138983607,9.111269951
27.43737609,3.333800077,1.191625714,9.135796547
27.44737609,3.329612732,1.157527924,9.250652313
27.45737609,3.31525588,1.118644595,9.26919651
27.46737609,3.181257725,1.042672515,9.181859016
27.47737609,3.152543783,1.03848505,9.124430656
27.48737609,3.10947299,1.033699393,9.110074043
27.49737609,3.166900873,1.067198873,9.086744308
27.50737609,3.214757204,1.062413216,9.134600639
27.51737609,3.20518589,0.9613165259,9.148359299
27.52737609,3.276970625,0.9858429432,9.143573761
27.53737609,3.257827997,1.033101201,9.201599121
27.54737609,3.286541939,1.10010016,9.206983566
27.55737609,3.352942705,1.112064362,8.828917503
27.56737609,3.18544507,1.198205948,8.776275635
27.57737609,3.190829039,1.146162033,9.436694145
27.58737609,3.330210924,1.140179992,9.676574707
27.59737609,3.244069338,1.08335042,9.546764374
27.60737609,3.257827997,1.088734269,9.436694145
27.61737609,3.209971666,0.9601200819,9.339784622
27.62737609,3.152543783,0.9272187948,9.300901413
27.63737609,3.095714331,0.9164510965,9.449256897
27.64737609,3.014358282,0.9068797827,9.419944763
27.65737609,3.008974552,0.9320043921,9.223732948
27.66737609,2.865405083,0.8291130662,8.849256516
27.67737609,3.080160856,1.015753269,8.870193481
27.71070193,-2.995813847,-9.339186668,1.05224371
27.72070193,-2.958127022,-9.328418732,0.837487936
27.73070193,-3.15433836,-9.332008362,0.6592226624
27.74070193,-3.193221807,-9.345767021,0.5060819983
27.75070193,-3.159722328,-9.273384094,0.4630111754
27.76070193,-3.193221807,-9.230911255,0.4875376225
27.77070193,-3.131008387,-9.245268822,0.5210371017
27.78070193,-3.102294445,-9.293723106,0.5784648657
27.79070193,-3.102294445,-9.30807972,0.5928218365
27.80070193,-3.144767046,-9.250652313,0.6454638839
27.81070193,-3.192623615,-9.313464165,0.6831508875
27.82070193,-3.216551781,-9.256634712,0.7555337548
27.83070193,-3.159124136,-9.170493126,0.7800601721
27.84070193,-3.159124136,-9.179466248,0.760917604
27.85070193,-3.178266764,-9.265008926,0.6215356588
27.86070193,-3.1405797,-9.245268822,0.5688936114
27.87070193,-3.107080221,-9.193224907,0.5886343718
27.88070193,-3.059223652,-9.159725189,0.626919508
27.89070193,-3.068794966,-9.284152031,0.5976074338
27.90070193,-3.111267567,-9.322437286,0.6257231236
27.91070193,-3.106482029,-9.256035805,0.6981059909
27.92070193,-3.111267567,-9.227322578,0.7657032609
27.93070193,-3.106482029,-9.285347939,0.7794619799
27.94070193,-3.063411236,-9.347561836,0.793818891
27.95070193,-3.05862546,-9.337391853,0.7316055298
27.96070193,-2.986840963,-9.308678627,0.7704889178
27.97070193,-2.94377017,-9.299705505,0.8039883971
27.98070193,-2.934198856,-9.280562401,0.7944171429
27.99070193,-2.996412039,-9.223134995,0.813559711
28.00070193,-3.03948307,-9.189635277,0.8231309652
28.01070193,-3.139981508,-9.180064201,0.8422735929
28.02070193,-3.202194929,-9.203393936,0.7220342159
28.03070193,-3.135195971,-9.212367058,0.6215356588
28.04070193,-3.068196774,-9.265008926,0.6167500615
28.05070193,-3.001197815,-9.288937569,0.6460621357
28.06070193,-2.996412039,-9.308678627,0.7507480979
28.07070193,-3.116053343,-9.270991325,0.8560323119
28.08070193,-3.230310678,-9.229715347,1.033101201
28.09070193,-3.230310678,-9.18245697,1.158126116
28.10070193,-3.230310678,-9.206384659,1.181456208
28.11070193,-3.249453068,-9.244669914,1.200598717
28.12070193,-3.187239647,-9.287740707,1.191027522
28.13070193,-3.120240688,-9.316454887,1.186241865
28.14070193,-3.134597778,-9.278169632,1.200598717
28.15070193,-3.101098061,-9.306883812,1.205384374
28.16070193,-3.134597778,-9.259027481,1.176670551
28.17070193,-3.129812002,-9.187242508,1.186840057
28.18070193,-3.153740168,-9.120243073,1.192223907
28.19070193,-3.215953588,-9.115457535,1.143769264
28.20070193,-3.225524902,-9.110074043,1.124626637
28.21070193,-3.201596737,-9.148359299,1.062413216
28.22070193,-3.249453068,-9.291330338,0.9798609018
28.23070193,-3.259024382,-9.363115311,0.9744769931
28.24070193,-3.259024382,-9.363115311,0.9361918569
28.25070193,-3.153740168,-9.329615593,0.9607182741
28.26070193,-3.120240688,-9.291330338,1.033101201
28.27070193,-3.153740168,-9.239286423,1.115055323
28.28070193,-3.220739365,-9.143573761,1.129412293
28.29070193,-3.206382275,-9.067601204,1.192223907
28.30070193,-3.172284603,-9.054440498,1.360319614
28.31070193,-3.086143017,-9.083752632,1.460818172
28.32070193,-2.971287489,-9.151350021,1.575673699
28.33070193,-2.827718258,-9.223134995,1.570888042
28.34070193,-2.813361168,-9.284749985,1.479960799
28.35070193,-2.79421854,-9.29432106,1.561316729
28.36070193,-2.71286273,-9.371489525,1.589432478
28.37070193,-2.588435888,-9.285347939,1.633699656
28.38070193,-2.60279274,-9.181260109,1.811366796
28.39070193,-2.673979282,-9.014959335,1.965703845
28.40070193,-2.711666346,-8.787641525,2.388036966
28.41070193,-2.754737139,-8.531609535,2.748754978
28.42070193,-2.74396944,-8.366504669,3.171088219
28.43070193,-2.791825771,-8.63031292,3.212364435
28.44070193,-3.174677372,-8.624331474,2.94317174
28.45070193,-3.221337557,-8.390432358,3.835096598
28.46070193,-2.952743053,-8.049455643,4.432105541
28.47070193,-2.861815929,-7.825726509,4.596612453
28.48070193,-2.837289333,-7.636095047,4.961517811
28.49070193,-3.518645763,-7.50209713,6.339185238
28.50070193,-3.972085476,-7.209574699,6.942774773
28.51070193,-2.684148788,-6.192625046,5.244469166
28.52070193,-1.996810555,-5.956333637,2.002194405
28.53070193,-2.322832584,-6.501298904,1.087537885
28.54070193,-2.594418049,-6.864409924,1.788036704
28.55070193,-3.043072224,-7.095915318,2.009970903
28.56070193,-4.353740692,-7.057032108,1.689332843
28.57070193,-4.599005222,-6.952346325,1.056431174
28.58070193,-4.942973614,-7.435696602,0.980459094
28.59070193,-5.081757069,-7.656434059,1.012163997
28.60070193,-4.130012035,-7.183253765,1.258026481
28.61070193,-2.934797049,-6.397809505,1.291526079
28.62070193,-1.743171334,-5.874379635,1.998605132
28.63070193,-1.267597795,-5.676971912,3.333201885
28.64070193,-1.754537225,-5.985047817,6.59043169
28.65070193,-2.570489645,-6.049654007,7.635497093
28.66070193,-2.505285263,-6.15733099,6.466603279
28.67070193,-2.301297188,-6.432505608,5.354538918
28.68070193,-2.302493572,-6.949953556,4.752744198
28.69070193,-2.475374937,-7.530212879,4.140181541
28.70070193,-2.11645174,-8.141578674,4.022933006
28.71070193,-1.84606266,-7.7838521,5.72123909
28.72070193,-2.188236237,-7.413562775,6.890730858
28.73070193,-2.363510609,-6.948158741,8.214560509
28.74070193,-1.737189293,-7.590033531,10.62652493
28.75070193,-2.60279274,-8.255836487,10.64746284
28.76070193,-3.938585997,-9.023932457,9.311071396
28.77070193,-4.49970293,-10.26939678,7.878966808
28.78070193,-3.94815731,-11.39880848,8.716454506
28.79070193,-2.665006161,-10.9489584,9.638887405
28.80070193,-1.436291814,-10.24487019,9.695717812
28.81070193,-1.379462242,-9.937990189,9.6693964
28.82070193,-1.683948994,-9.876974106,10.50150013
28.83070193,-1.945963025,-10.00977516,11.09850979
28.84070193,-2.562713146,-10.2592268,11.05125141
28.85070193,-2.858824968,-10.37109184,11.35633659
28.86070193,-3.288336515,-10.42732334,11.86660576
28.87070193,-3.340978622,-10.33998489,11.69432259
28.88070193,-3.056232691,-11.23011494,13.1838541
28.89070193,-2.715853691,-11.6769743,13.47458267
28.90070193,-2.653042078,-12.23210907,13.53320694
28.91070193,-0.9481559992,-11.03868866,12.68554878
28.92070193,0.8386843204,-10.24427223,12.21835041
28.93070193,1.498505235,-8.371290207,9.771689415
28.94070193,0.2123630047,-8.557929993,9.55035305
28.95070193,-1.121635556,-8.74576664,9.562915802
28.96070193,-2.615953445,-8.787042618,8.388637543
28.97070193,-2.679363251,-8.307880402,7.510472298
28.98070193,-2.631506681,-8.711071014,7.680362701
28.99070193,-3.034099102,-8.201399803,7.24606514
29.00070193,-3.649652719,-7.088737011,5.258825779
29.01070193,-5.020142078,-6.077171326,4.053441525
29.02070193,-6.364310265,-5.215157032,3.785445452
29.03070193,-7.163512707,-4.998606682,3.534797192
29.04070193,-5.740979671,-3.888935089,2.312064886
29.05070193,-4.089931965,-2.394019127,0.709471941
29.06070193,-2.326421738,-1.764108539,0.4905286431
29.07070193,-1.012163997,-1.11445713,0.08315058798
29.08070193,-0.02572284266,-0.1232303679,-1.396211982
29.09070193,0.9984052777,-0.109471634,-1.10010016
29.10070193,1.636690736,-0.2297109663,0.5102694035
29.11070193,1.354935765,0.500099957,0.8781659007
29.12070193,0.6741777658,1.887338877,0.1274178028
29.13070193,0.3445664644,2.252842426,0.5551348329
29.14070193,0.171086818,3.592225075,2.952144861
29.15070193,-0.2279163599,5.184050083,4.727619171
29.16070193,-0.7668996453,3.824927092,5.387440205
29.17070193,-0.008973085321,3.639483213,3.727419376
29.18070193,0.5599204898,3.21894455,0.6957131624
29.19070193,1.652244091,1.701895118,-1.416550994
29.20070193,2.778067112,0.584446907,-0.1357926875
29.21070193,5.755336761,0.4636093974,4.198805332
29.22070193,10.08754253,0.3786641955,9.923035622
29.23070193,18.01137352,2.714657307,13.85145187
29.24070193,28.41835785,7.018746853,13.46381474
29.25070193,33.1304245,12.63529968,13.61336613
29.26070193,36.25305939,19.38306046,23.93002129
29.27070193,32.79961777,26.8678093,31.1234436
29.28070193,24.96312141,23.39881516,27.72862625
29.29070193,20.78644943,13.09292698,20.62732697
29.30070193,11.54716396,-1.55054903,10.19402313
29.31070193,6.043073654,-9.25783062,2.246860504
29.32070193,7.094120979,-3.190230846,-8.149953842
29.33070193,9.014959335,3.176471949,-15.66760445
29.34070193,10.35015392,6.106483459,-17.17149353
29.35070193,10.81137085,9.068199158,-14.72782326
29.36070193,9.787840843,10.46082211,-11.83071327
29.37070193,8.838488579,11.51306629,-10.36211872
29.38070193,9.434301376,11.53460121,-8.377271652
29.39070193,11.61535931,7.556533813,4.893920422
29.40070193,12.46840096,8.024929047,11.92941761
29.41070193,13.83290768,13.64088345,8.78584671
29.42070193,10.47876835,9.942177773,6.66640377
29.43070193,6.360122681,3.70588398,3.939184189
29.44070193,5.434100151,1.073180914,3.909274101
29.45070193,4.639683247,1.465603828,3.81296277
29.46070193,3.43609333,0.8333004713,4.445864677
29.47070193,2.444866419,1.473978758,3.713660717
29.48070193,1.202991605,3.244069338,2.125424623
29.49070193,0.7513462901,4.881358147,1.262812138
29.50070193,-0.1812563092,5.534598827,1.512263894
29.51070193,-0.8303094506,5.230112076,1.876571178
29.52070193,-0.9601200819,6.689733982,1.914258122
29.53070193,-0.5294120312,6.482754707,2.086541414
29.54070193,1.276570916,6.61914587,1.232901812
29.55070193,2.944368362,6.634100914,0.6263213158
29.56070193,3.249453068,6.102295876,-0.05084748194
29.57070193,3.015554667,5.350351334,-0.004187439568
29.58070193,2.317448616,5.23429966,0.07357929647
29.59070193,1.815554142,5.644668579,0.1992024779
29.60070193,1.345364571,6.619743824,-0.4097708762
29.61070193,1.363310695,7.086942673,-0.8805587292
29.62070193,1.799402595,7.209574699,-0.524028182
29.63070193,2.309073925,7.337590694,1.236491084
29.64070193,2.723630428,7.200003147,3.406183004
29.65070193,3.9625144,7.461419106,9.125627518
29.66070193,6.096313953,8.207381248,10.28255749
29.67070193,6.757331371,7.953742504,8.081160545
29.68070193,6.672984123,7.164111137,5.815755367
29.69070193,7.307082176,6.668796539,4.722833633
29.70070193,7.359724045,6.692724705,4.728217602
29.71070193,6.644868374,5.73200655,5.968895912
29.72070193,6.061617851,5.319842815,6.026323795
29.73070193,5.416752338,5.857031822,6.434299946
29.74070193,4.265206337,7.052844524,7.23230648
29.75070193,3.286541939,7.892127514,8.263612747
29.76070193,2.365305185,8.54357338,9.576076508
29.77070193,0.6490531564,9.148359299,9.870393753
29.78070193,-0.2518445849,9.122037888,8.574081421
29.79070193,-1.130010486,9.098708153,6.913462639
29.80070193,-1.486541033,9.246464729,5.40000248
29.81070193,-1.162911773,9.15733242,4.442873478
29.82070193,-1.033101201,8.400003433,4.587040901
29.83070193,-1.067198873,6.698108673,6.597012043
29.84070193,-0.4157529473,4.302893162,9.29432106
29.85070193,0.561715126,3.364308596,10.23529911
29.86070193,0.851246655,3.620340586,9.199206352
29.87070193,1.242473125,3.837489367,5.892923832
29.88070193,1.759322882,4.384847641,3.413361549
29.89070193,2.720639229,5.330610752,3.820739508
29.90070193,3.276372433,6.196214199,4.80957365
29.91070193,3.778865099,6.367899418,4.985445976
29.92070193,3.260818958,5.806782246,6.550352097
29.93070193,2.169093609,5.190032482,8.629714966
29.94070193,1.101296663,4.122833252,9.984052658
29.95070193,-0.6628118753,2.737389088,10.10728264
29.96070193,-1.954337835,1.448255897,9.447462082
29.97070193,-1.944766641,0.733400166,8.973683357
29.98070193,-0.9116654396,-2.836092949,8.24147892
29.99070193,-0.2410768867,-6.98704195,7.844270706
30.00070193,0.6765705943,-7.472187042,7.42313385
30.01070193,2.345564365,-9.002995491,9.866804123
30.02070193,3.216551781,-11.59502029,12.66461182
30.03070193,4.945366383,-11.74277687,19.61815453
30.04070193,8.16610527,-10.63071251,27.35654259
30.05070193,12.30628681,-7.277770042,36.51626968
30.06070193,11.23968601,-6.517450809,36.492939
30.07070193,5.067998409,-5.92343235,28.71566582
30.08070193,-0.2201396823,-4.499104977,20.83670044
30.09070193,-2.437688112,-4.71924448,15.93799305
30.10070193,-3.645465374,-6.635297298,10.82632637
30.11070193,-4.829912663,-6.9649086,5.964110374
30.12070193,-3.881756544,-0.2877369225,2.940778971
30.13070193,-3.096312523,1.13120687,1.200000525
30.14070193,-2.721835852,1.889731646,-0.6275177598
30.15070193,-2.218146563,1.838286042,-2.297109842
30.16070193,-1.883151412,0.9690931439,-2.569891453
30.17070193,-1.433300734,1.088136077,-2.370688915
30.18070193,-0.7633104324,2.011765718,-1.505085468
30.19070193,-0.3056831062,2.483749866,0.3577269912
30.20070193,0.2679961324,2.218146563,3.02512598
30.21070193,1.649851203,1.465005636,5.740979671
30.22070193,3.02512598,0.6149554253,7.220342159
30.23070193,4.738985062,0.709471941,8.357531548
30.24070193,6.750751019,0.9308080077,10.70847988
30.25070193,7.483552933,0.8644071817,11.47179031
30.26070193,6.518048763,0.7010970116,11.38564873
30.27070193,5.63090992,0.8769695163,9.927821159
30.28070193,5.091926575,1.697109461,8.08295536
30.29070193,4.707280159,2.535195589,7.186244488
30.30070193,4.367499352,2.510669231,7.218547821
30.31070193,4.335196495,2.115255117,7.723433495
30.32070193,4.462016106,1.352542996,8.78225708
30.33070193,4.990231514,0.8703892231,10.18385315
30.34070193,5.383252621,0.5796613097,10.77248764
30.35070193,5.39701128,0.5886343718,10.1024971
30.36070193,5.390431404,0.7052844763,9.078369141
30.37070193,5.356333256,1.243071318,8.827720642
30.38070193,5.863611698,2.020140409,9.32303524
30.39070193,6.797410965,2.085943222,10.41894817
30.40070193,6.448657036,1.251446247,12.96431351
30.41070193,4.306482315,0.390030086,15.70888042
30.42070193,2.932404041,0.2823530734,17.34557152
30.43070193,2.251646042,0.917647481,16.69592094
30.44070193,1.995614052,1.349551916,14.99761391
30.45070193,1.363908887,1.841277003,12.07238865
30.46070193,0.7417750359,2.224128723,8.988637924
30.47070193,0.4462614357,2.36111784,6.98704195
30.48070193,0.1010967568,2.168495417,6.285346985
30.49070193,-0.1609173268,1.9585253,6.958328247
30.50070193,-0.07357929647,1.516451359,7.27178812
30.51070193,0.1423729509,1.278365493,7.859824181
30.52070193,0.4731806815,0.7453642488,8.202595711
30.53070193,0.7028916478,0.6442674994,8.303094864
30.54070193,0.8895317912,0.8153542876,8.511270523
30.55070193,0.9421738982,1.000798106,8.660821915
30.56070193,0.8303094506,1.60678041,7.457829952
30.57070193,0.5569294691,1.398006678,7.11984396
30.58070193,0.2416750938,1.412363529,7.113861561
30.59070193,0.2039881349,1.52542448,7.397411346
30.60070193,0.05623133108,1.503290772,7.803592682
30.61070193,-0.08195417374,1.466800332,8.26241684
30.62070193,0.0197407864,1.304686546,8.941978455
30.63070193,0.3176472187,1.143171072,9.588638306
30.64070193,0.4857429862,1.191625714,10.20718288
30.65070193,0.7160521746,1.07497561,10.53739262
30.66070193,0.9122636318,0.6550351977,10.41117096
30.67070193,1.068395257,0.7950153351,9.469595909
30.68070193,0.5521438122,0.9122636318,9.779465675
30.69070193,0.513858676,0.97926265,9.774680138
30.70070193,0.7716853023,0.980459094,9.584450722
30.71070193,1.039681435,0.9517452121,9.661619186
30.72070193,1.121635556,0.7633104324,9.905089378
30.73070193,1.136590719,0.604187727,10.11984539
30.74070193,1.514058471,0.5383850932,10.01037312
30.75070193,1.604985833,0.513858676,10.1210413
30.76070193,1.916052699,0.5264210105,10.38066292
30.77070193,2.236690998,0.5120640397,10.46800041
30.78070193,2.758326292,0.5832505226,10.60439205
30.79070193,3.102892876,0.5766702294,10.98903847
30.80070193,3.743571043,0.9984052777,10.98903847
30.81070193,4.397409916,1.281356573,10.22273636
30.82070193,4.018745422,1.303490162,9.708877563
30.83070193,3.740580082,1.411167145,9.27278614
30.84070193,3.223132133,1.494915962,8.840283394
30.85070193,2.845664263,1.423131227,8.747561455
30.86070193,2.583052158,1.536192179,9.005986214
30.87070193,2.420340061,1.79820621,9.227322578
30.88070193,2.382055044,1.836491346,9.150752068
30.89070193,2.458027124,1.714457393,8.848658562
30.90070193,2.309672117,1.490130305,8.654839516
30.91070193,2.276172638,1.174875975,8.547162056
30.92070193,2.38624239,0.9984052777,8.55134964
30.93070193,2.582453728,0.7501499057,8.469395638
30.94070193,2.644667149,0.5485545993,8.506484032
30.95070193,2.797807932,0.6957131624,8.776275635
30.96070193,2.874976397,0.732203722,9.044869423
30.97070193,2.813361168,0.7591229677,9.298508644
30.98070193,2.837289333,0.926620543,9.357132912
30.99070193,3.148356438,0.8386843204,9.655039787
31.00070193,3.239283562,0.8715856671,9.70827961
31.01070193,3.172284603,0.9014959335,9.588040352
31.02070193,3.296113253,1.012163997,9.436096191
31.03070193,3.554538012,1.141974568,9.385248184
31.04070193,3.707080364,1.138385415,9.227920532
31.05070193,3.731008768,0.9661021233,9.293723106
31.06070193,3.678964853,0.8488538265,9.585049629
31.07070193,3.263810158,0.6370890141,9.754341125
31.08070193,3.05862546,0.6017948985,10.05523872
31.09070193,3.245265722,0.9541380405,10.32622623
31.10070193,3.293122053,1.15094769,10.28435135
31.11070193,3.206382275,1.253839016,9.897313118
31.12070193,3.114258766,1.337587833,9.437292099
31.13070193,3.028116941,1.358525038,9.135796547
31.14070193,2.998805046,1.330409408,9.029914856
31.15070193,3.094517946,1.332203984,8.829515457
31.16070193,3.146561861,1.179661512,8.737391472
31.17070193,3.017947674,1.269990563,8.785248756
31.18070193,3.070589542,1.288534999,8.895915985
31.19070193,2.974876642,1.231107235,8.909674644
31.20070193,2.88454771,1.415952802,9.111269951
31.21070193,2.946761131,1.467996716,9.275178909
31.22070193,3.061616659,1.342971683,9.370293617
31.23070193,3.12383008,1.281954765,9.188439369
31.24070193,2.970689297,1.16769743,9.052646637
31.25070193,2.82233429,1.039083242,8.912666321
31.26070193,2.937189817,0.9433703423,8.960522652
31.27070193,3.075973511,0.9571290612,9.061619759
31.28070193,3.037688255,0.9421738982,9.185447693
31.29070193,2.922832966,0.965503931,9.214161873
31.30070193,2.941975355,0.9361918569,9.290732384
31.31070193,3.066402197,1.007976532,9.34457016
31.32070193,3.052045345,0.9696913958,9.310472488
31.33070193,3.019144058,0.9122636318,9.333803177
31.34070193,3.052643538,0.8596215248,9.386445045
31.35070193,3.028715372,0.8117650747,9.390632629
31.36070193,3.090928555,0.8063812256,9.415159225
31.37070193,3.214757204,0.8644071817,9.406186104
31.38070193,3.276970625,0.9601200819,9.354142189
31.39070193,3.343969584,1.008574724,9.330811501
31.40070193,3.396611691,1.066002488,9.307481766
31.41070193,3.487539053,1.156929731,9.303893089
31.42070193,3.492324591,1.156929731,9.289535522
31.43070193,3.376870871,1.200598717,9.20758152
31.44070193,3.262613773,1.214955688,9.198010445
31.45070193,3.238685369,1.200598717,9.20758152
31.46070193,3.114258766,1.128814101,9.201599121
31.47070193,3.032902718,1.104885817,9.205786705
31.48070193,3.066402197,1.061216831,9.27278614
31.49070193,3.052045345,1.022931695,9.268000603
31.50070193,2.889333248,0.970289588,9.252447128
31.51070193,2.837289333,0.9744769931,9.295517921
31.52070193,2.846860647,0.9601200819,9.309874535
31.53070193,2.745764017,0.9996016622,9.170493126
31.54070193,2.726621389,1.033699393,9.065208435
31.55070193,2.683550596,1.024128079,9.046066284
31.56070193,2.736192703,1.013958573,9.113064766
31.57070193,2.82233429,0.9559326172,9.227920532
31.58070193,2.856431961,0.941575706,9.280562401
31.59070193,2.894717216,0.9409775138,9.300303459
31.60070193,2.942573547,0.9559326172,9.290732384
31.61070193,3.03350091,1.022333503,9.387042999
31.62070193,3.047857761,1.036092162,9.416355133
31.63070193,3.062214851,1.083948612,9.454640388
31.64070193,3.066402197,1.132403374,9.383454323
31.65070193,3.037688255,1.127617717,9.345169067
31.66070193,2.999403238,1.103689432,9.349356651
31.67070193,2.928216696,1.079761267,9.358329773
31.68070193,2.923431158,1.022333503,9.310472488
31.69070193,2.870190859,0.9846464992,9.228518486
31.70070193,2.836691141,1.018146038,9.214161873
31.71070193,2.88454771,1.06660068,9.181260109
31.72070193,2.951546669,1.10010016,9.191430092
31.73070193,3.018545866,1.152144074,9.235098839
31.74070193,2.975475073,1.128215909,9.287142754
31.75070193,2.946761131,1.089930773,9.287142754
31.76070193,2.932404041,1.056431174,9.272188187
31.77070193,2.908475876,0.9894321561,9.281160355
31.78070193,2.989831924,0.912861824,9.209376335
31.79070193,2.866003275,0.9308080077,9.395418167
31.80070193,2.885145903,0.9170492887,9.333204269
31.81070193,2.870789051,0.902692318,9.328418732
31.82070193,2.899502754,1.003190875,9.295517921
31.83070193,2.88454771,1.056431174,9.267401695
31.84070193,2.922832966,1.070788145,9.248259544
31.85070193,2.874976397,1.032503009,9.233304024
31.86070193,2.860619545,1.018146038,9.252447128
31.87070193,2.913261652,0.994217813,9.271589279
31.88070193,2.937189817,0.9846464992,9.281160355
31.89070193,2.961716175,0.97926265,9.348757744
31.90070193,3.000001431,0.9984052777,9.358329773
31.91070193,2.985644341,0.97926265,9.334401131
31.92070193,2.932404041,0.9894321561,9.238089561
31.93070193,2.91804719,1.022931695,9.253045082
31.94070193,2.894119024,1.04685986,9.262616158
31.95070193,2.937189817,1.089930773,9.243474007
31.96070193,2.922832966,1.113858938,9.27278614
31.97070193,2.913261652,1.109073281,9.253643036
31.98070193,2.951546669,1.07497561,9.310472488
31.99070193,2.952144861,1.007976532,9.339186668
32.00070193,2.952144861,1.007976532,9.339186668
32.01070193,2.971287489,1.070189953,9.363713264
32.02070193,2.951546669,1.04685986,9.272188187
32.03070193,2.947359324,1.017547846,9.310472488
32.04070193,2.933002472,1.069591761,9.391828537
32.05070193,2.846860647,0.9978070259,9.434301376
32.06070193,2.827718258,0.9547362328,9.385847092
32.07070193,2.79421854,0.9457631707,9.323633194
32.08070193,2.79421854,0.9314061999,9.280562401
32.09070193,2.793620348,0.9511470199,9.184849739
32.10070193,2.817548752,0.970289588,9.184849739
32.11070193,2.860619545,1.008574724,9.214161873
32.12070193,2.908475876,1.042074203,9.267401695
32.13070193,2.889333248,1.056431174,9.267401695
32.14070193,2.946761131,1.032503009,9.2865448
32.15070193,2.946761131,1.070189953,9.310472488
32.16070193,2.932404041,1.056431174,9.272188187
32.17070193,2.951546669,1.036690354,9.300901413
32.18070193,2.946761131,1.036690354,9.305686951
32.19070193,2.908475876,1.012762189,9.291330338
32.20070193,2.894119024,0.9984052777,9.281160355
32.21070193,2.879761934,0.9984052777,9.295517921
32.22070193,2.880360365,0.955334425,9.367302895
32.23070193,2.894717216,0.9649057388,9.34815979
32.24070193,2.894717216,0.9457631707,9.305088997
32.25070193,2.88454771,0.9846464992,9.238089561
32.26070193,2.927618504,1.008574724,9.25783062
32.27070193,2.874976397,0.9888339639,9.285946846
32.28070193,2.870789051,0.9888339639,9.34815979
32.29070193,2.866003275,0.9834501147,9.372088432
32.30070193,2.842075109,0.9649057388,9.362516403
32.31070193,2.813361168,0.9744769931,9.352945328
32.32070193,2.80857563,1.003190875,9.295517921
32.33070193,2.836691141,1.051645517,9.262018204
32.34070193,2.855833769,1.080359459,9.25783062
32.35070193,2.874976397,1.061216831,9.276973724
32.36070193,2.913261652,1.066002488,9.2865448
32.37070193,2.923431158,1.031904817,9.310472488
32.38070193,2.918645382,1.036690354,9.310472488
32.39070193,2.885145903,0.97926265,9.343374252
32.40070193,2.813361168,0.9457631707,9.304491043
32.41070193,2.818146944,0.9696913958,9.338588715
32.42070193,2.827718258,0.9984052777,9.31944561
32.43070193,2.856431961,1.007976532,9.324232101
32.44070193,2.836691141,0.9894321561,9.247661591
32.45070193,2.855833769,1.02711916,9.276374817
32.46070193,2.861217737,1.036690354,9.314660072
32.47070193,2.90428853,1.017547846,9.343972206
32.48070193,2.88993144,1.007976532,9.357730865
32.49070193,2.861217737,0.9936196208,9.357730865
32.50070193,2.842075109,0.9744769931,9.333803177
32.51070193,2.818146944,0.9601200819,9.304491043
32.52070193,2.831905603,0.9798609018,9.233304024
32.53070193,2.817548752,1.008574724,9.242876053
32.54070193,2.880360365,1.012762189,9.305088997
32.55070193,2.842075109,0.9696913958,9.295517921
32.56070193,2.79421854,0.9314061999,9.333204269
32.57070193,2.822932482,0.9690931439,9.396016121
32.58070193,2.899502754,1.026520967,9.420542717
32.59070193,2.885145903,1.041476011,9.367900848
32.60070193,2.837289333,0.9984052777,9.362516403
32.61070193,2.80857563,0.9451649189,9.395418167
32.62070193,2.79421854,0.8829515576,9.394820213
32.63070193,2.799004316,0.8835497499,9.361320496
32.64070193,2.799004316,0.8596215248,9.361320496
32.65070193,2.803789854,0.8931210637,9.280562401
32.66070193,2.88993144,0.9367900491,9.271589279
32.67070193,2.898904562,0.994217813,9.271589279
32.68070193,2.894119024,1.042074203,9.253045082
32.69070193,2.898904562,1.042074203,9.281759262
32.70070193,2.88454771,1.041476011,9.291330338
32.71070193,2.913261652,1.04685986,9.25783062
32.72070193,2.889333248,1.032503009,9.224330902
32.73070193,2.860619545,1.032503009,9.247661591
32.74070193,2.799004316,0.9744769931,9.318847656
32.75070193,2.751147747,0.9361918569,9.314062119
32.76070193,2.746362209,0.9451649189,9.361918449
32.77070193,2.751147747,0.955334425,9.342776299
32.78070193,2.813361168,0.9649057388,9.304491043
32.79070193,2.880360365,0.9984052777,9.314660072
32.80070193,2.885145903,0.9888339639,9.34815979
32.81070193,2.918645382,0.9786644578,9.396016121
32.82070193,2.866003275,1.002592683,9.391230583
32.83070193,2.832503796,0.9744769931,9.329017639
32.84070193,2.79421854,0.9218349457,9.309276581
32.85070193,2.818146944,0.9272187948,9.26142025
32.86070193,2.827718258,0.9409775138,9.285347939
32.87070193,2.827718258,0.9409775138,9.323633194
32.88070193,2.775076151,0.9690931439,9.371489525
32.89070193,2.779861689,1.007976532,9.31944561
