Time (s),Gyroscope x (rad/s),Gyroscope y (rad/s),Gyroscope z (rad/s)
8.227252567,-0.02428189293,0.05482515693,-0.006108652335
8.237252567,-0.0155770639,0.04886921868,-0.01481348183
8.247252567,-0.005650503561,0.0354301855,-0.0160352122
8.257252567,-0.00320704258,0.03054326214,-0.0160352122
8.267252567,0.004123340361,0.03191770986,-0.01114829071
8.277252567,0.01282817032,0.02092213556,-0.007635815535
8.287252567,0.02031126991,0.01847867295,-0.007635815535
8.297252567,0.02886338346,0.02474004216,-0.008857546374
8.307252567,0.0262672063,0.03084869497,-0.006414085161
8.317252567,0.02122756653,0.03940080851,-0.003817907767
8.327252567,0.01863138936,0.054061573,-0.002596177394
8.337252567,0.01847867295,0.06872233748,-0.00122173049
8.347252567,0.02840523422,0.06643159688,-0.002596177394
8.357252567,0.03222314268,0.05543602258,-0.002596177394
8.367252567,0.02748893574,0.03451388702,0.0009162978968
8.377252567,0.01542434748,0.009773843922,0.004581489135
8.387252567,0.007024950348,-0.002596177394,0.006872233935
8.397252567,-0.001374446787,-0.01359175146,0.01053742506
8.407252567,-0.01725694351,-0.03344487399,0.01527163107
8.417252567,-0.03558290005,-0.0300851129,0.02153299935
8.427252567,-0.03680463135,-0.0313068442,0.0190895386
8.437252567,-0.03069597855,-0.03726277873,0.01649336144
8.447252567,-0.02809980139,-0.04337143153,0.01282817032
8.457252567,-0.02809980139,-0.04948008433,0.01038470957
8.467252567,-0.02809980139,-0.04703662544,0.009162978269
8.477252567,-0.02687807009,-0.04337143153,0.009162978269
8.487252567,-0.02794708498,-0.05436700583,0.01038470957
8.497252567,-0.03054326214,-0.05192354694,0.009162978269
8.507252567,-0.0282525178,-0.03115412779,0.004428773187
8.517252567,-0.01985312067,-0.02000583708,0.001985311974
8.527252567,-0.01618792862,-0.0125227375,-0.004123340361
8.537252567,-0.0140499007,0.01695151068,-0.008857546374
8.547252567,-0.01298088674,0.02916881628,-0.01114829071
8.557252567,-0.004123340361,0.009621127509,-0.008857546374
8.567252567,-0.002901609987,0.008552113548,-0.007635815535
8.577252567,-0.005345070735,0.01084285788,-0.003970623948
8.587252567,-0.004276056774,0.01328631863,-0.005192354787
8.597252567,-0.004123340361,0.005955935922,-0.006414085161
8.607252567,-0.007788531948,0.003512475174,-0.003970623948
8.617252567,-0.01267545391,-0.0003054326226,-0.0003054326226
8.627252567,-0.01389718428,-0.003970623948,0.0007635815418
8.637252567,-0.007635815535,-0.008704829961,-0.0004581489484
8.647252567,0.004581489135,-0.01114829071,-0.0004581489484
8.657252567,0.007024950348,-0.004886921961,-0.0004581489484
8.667252567,0.004581489135,-0.0,0.001985311974
8.677252567,-0.006566801574,0.004734205548,0.004581489135
8.687252567,-0.005345070735,0.001069014193,0.00320704258
8.697252567,-0.001527163084,-0.001374446787,0.001985311974
8.707252567,-0.006414085161,-0.005039638374,0.0007635815418
8.717252567,-0.01023199316,-0.001527163084,0.00320704258
8.727252567,-0.01023199316,-0.0003054326226,0.00320704258
8.737252567,-0.01053742506,0.03405573592,0.002290744567
8.747252567,-0.04001167417,0.03497203439,0.01206458826
8.757252567,-0.06566801667,0.01496619824,0.01328631863
8.767252567,-0.05207626149,0.007788531948,0.008246680722
8.777252567,-0.03252857551,0.01420261711,0.004581489135
8.787252567,-0.01878410578,0.002138028387,-0.0003054326226
8.797252567,-0.01359175146,-0.02474004216,-0.002901609987
8.807252567,-0.01970040426,-0.02474004216,-0.006566801574
8.817252567,-0.04214970022,0.008093964309,-0.01496619824
8.827252567,-0.06337726861,0.0300851129,-0.03313944116
8.837252567,-0.07574728876,0.04459316283,-0.03665191308
8.847252567,-0.08032877743,0.01237002108,0.01084285788
8.857252567,-0.08964447677,-0.02580905706,0.02153299935
8.867252567,-0.1215621829,-0.03222314268,0.0300851129
8.877252567,-0.08720101416,-0.03069597855,0.0239764601
8.887252567,0.02306016348,-0.009621127509,0.004428773187
8.897252567,0.1098030284,0.03436116874,-0.01511891466
8.907252567,0.141720742,0.03466660157,-0.02122756653
8.917252567,0.1502728462,0.03237585723,-0.02367102914
8.927252567,0.1708895564,0.04978551716,-0.02855795063
8.937252567,0.1252273768,0.07620543987,-0.02947424725
8.98793895,0.0726929605,0.04749477282,-0.03940080851
8.99793895,0.05283984542,0.06811147183,-0.03313944116
9.00793895,0.02809980139,0.09346238524,-0.0293215327
9.01793895,0.008399397135,0.09697485715,-0.02672535367
9.02793895,0.004734205548,0.08949175477,-0.01695151068
9.03793895,0.008704829961,0.06750060618,-0.007330383174
9.04793895,0.01863138936,0.054061573,-0.007483099122
9.05793895,0.03115412779,0.02840523422,-0.002748893574
9.06793895,0.03268129006,0.002748893574,0.0007635815418
9.07793895,0.02290744707,0.0001527163113,-0.00167987938
9.08793895,0.01679879427,-0.00122173049,-0.0004581489484
9.09793895,0.0155770639,-0.004886921961,0.0007635815418
9.10793895,0.01450804994,-0.0171042271,0.006872233935
9.11793895,0.01466076635,-0.02199114859,0.006719517522
9.12793895,0.01206458826,-0.01847867295,0.005650503561
9.13793895,0.009621127509,-0.0109955743,0.001985311974
9.14793895,0.01664607786,0.008704829961,-0.00167987938
9.15793895,0.01786780916,0.01359175146,-0.002748893574
9.16793895,0.01053742506,0.01221730467,-0.005192354787
9.17793895,0.009162978269,0.02336559631,-0.01130100712
9.18793895,0.01649336144,0.03451388702,-0.0125227375
9.19793895,0.0201585535,0.03573561832,-0.01007927675
9.20793895,0.02122756653,0.03817907721,-0.01007927675
9.21793895,0.0140499007,0.03313944116,-0.01007927675
9.22793895,0.01160643995,0.02092213556,-0.01007927675
9.23793895,0.01191187184,0.002596177394,-0.01145372353
9.24793895,0.02657263726,-0.0009162978968,-0.01145372353
9.25793895,0.03756821156,0.002748893574,-0.01023199316
9.26793895,0.03405573592,-0.0009162978968,-0.007788531948
9.27793895,0.03054326214,-0.01450804994,-0.004123340361
9.28793895,0.03298672289,-0.02183843218,-0.0006108652451
9.29793895,0.02687807009,-0.02306016348,0.0006108652451
9.30793895,0.0293215327,-0.01572977938,0.003054326167
9.31793895,0.03420845419,-0.01450804994,0.004276056774
9.32793895,0.03787364438,-0.01572977938,0.004276056774
9.33793895,0.03665191308,-0.01328631863,0.005497787148
9.34793895,0.03069597855,-0.03405573592,0.003054326167
9.35793895,0.02718350291,-0.05375614017,0.002901609987
9.36793895,0.03940080851,-0.04627304152,0.00167987938
9.37793895,0.05635231733,-0.02764165215,0.003054326167
9.38793895,0.06627888232,-0.0251981914,0.0140499007
9.39793895,0.0601702258,-0.03756821156,0.02000583708
9.40793895,0.05543602258,-0.04749477282,0.02244929783
9.41793895,0.06780604273,-0.05345070735,0.02367102914
9.42793895,0.08750644326,-0.06185010448,0.02840523422
9.43793895,0.09743300825,-0.08017606288,0.03558290005
9.44793895,0.1000291854,-0.08872817457,0.03313944116
9.45793895,0.1001819,-0.0972802937,0.03069597855
9.46793895,0.1125519201,-0.1069014147,0.03054326214
9.47793895,0.1421788931,-0.120187737,0.03649919853
9.48793895,0.1777617931,-0.1246165112,0.04382958263
9.49793895,0.2147191316,-0.1316414624,0.04856378585
9.50793895,0.2492330223,-0.149661988,0.0532979928
9.51793895,0.2790127099,-0.169056952,0.06414084882
9.52793895,0.3124575615,-0.1957823038,0.08109235764
9.53793895,0.3436116874,-0.2371684313,0.09789115191
9.54793895,0.3747658134,-0.2809980214,0.1134682223
9.55793895,0.3972151279,-0.3164281845,0.1241583601
9.56793895,0.4366159439,-0.3220787048,0.1313360333
9.57793895,0.4746423066,-0.3217732608,0.130114302
9.58793895,0.511752367,-0.3446807265,0.1348485053
9.59793895,0.5377141237,-0.3663664162,0.1383609772
9.60793895,0.5739079118,-0.4163046777,0.1466076523
9.61793895,0.6174320579,-0.4648684561,0.1559233516
9.62793895,0.6717990637,-0.4949535728,0.1631010175
9.63793895,0.72356987,-0.5079344511,0.1592831165
9.64793895,0.7544185519,-0.5320636034,0.1430951804
9.65793895,0.7783950567,-0.5928447247,0.1146899462
9.66793895,0.8013024926,-0.6733261943,0.08124507964
9.67793895,0.8310821652,-0.7023423314,0.06154467165
9.68793895,0.8397870064,-0.7058547735,0.05910121277
9.69793895,0.8397870064,-0.7070765495,0.06398813426
9.70793895,0.8516988754,-0.6690501571,0.0726929605
9.71793895,0.8657487631,-0.6125451326,0.07544185966
9.72793895,0.8784242272,-0.5351179838,0.06963863969
9.73793895,0.893848598,-0.4918992519,0.05161811411
9.74793895,0.9358455539,-0.5097670555,0.02947424725
9.75793895,1.003651619,-0.5395467281,0.01572977938
9.76793895,1.065807104,-0.499535054,-0.009773843922
9.77793895,1.087950945,-0.5028948188,-0.0232128799
9.78793895,1.089630842,-0.5445863605,-0.01130100712
9.79793895,1.083674908,-0.5595525503,0.01786780916
9.80793895,1.12842083,-0.4870123267,0.06582073122
9.81793895,1.197448611,-0.3932445049,0.1078177169
9.82793895,1.226311922,-0.3488040566,0.120187737
9.83793895,1.247692227,-0.3915646076,0.1137736514
9.84793895,1.245401502,-0.413403064,0.07941248268
9.85793895,1.186452985,-0.5145012736,0.05100724846
9.86793895,1.13407135,-0.6658431292,0.05146539584
9.87793895,1.126435518,-0.8659014702,0.07971791178
9.88793895,1.172097683,-1.004262447,0.1472185254
9.89793895,1.205084443,-1.103222609,0.1588249654
9.90793895,1.194241524,-1.120479584,0.1490511149
9.91793895,1.137278318,-1.074512005,0.1322523206
9.92793895,1.078024387,-1.047786593,0.05436700583
9.93793895,1.053284407,-1.037707329,-0.03833179548
9.94793895,1.055269718,-1.001819015,-0.09789115191
9.95793895,1.079856992,-1.006247759,-0.1273654103
9.96793895,1.129184365,-1.030224204,-0.1250746548
9.97793895,1.140027285,-1.000749946,-0.1004873365
9.98793895,1.130558848,-0.9263771176,-0.06230825558
9.99793895,1.13819468,-0.829554975,-0.04581489414
10.00793895,1.159116745,-0.7250970602,-0.04413501546
10.01793895,1.175762892,-0.669508338,-0.08170322329
10.02793895,1.18049705,-0.660498023,-0.1389718503
10.03793895,1.169348836,-0.6615670323,-0.2012801021
10.04793895,1.184009552,-0.653778553,-0.2525927722
10.05793895,1.225090265,-0.7154759169,-0.3249803185
10.06793895,1.307251573,-0.9286679029,-0.3958406746
10.07793895,1.409418821,-1.183704138,-0.4071416855
10.08793895,1.482111812,-1.309542418,-0.3506366611
10.09793895,1.520901799,-1.374752283,-0.2264782935
10.10793895,1.517083883,-1.350928545,-0.1067487001
10.11793895,1.48684597,-1.275333881,-0.09529497474
10.12793895,1.450041413,-1.176221013,-0.1264491081
10.13793895,1.382998943,-1.114065528,-0.1942551434
10.14793895,1.333976984,-1.127504468,-0.2895501256
10.15793895,1.297019601,-1.225548387,-0.3900374472
10.16793895,1.27075243,-1.305266261,-0.4369213581
10.17793895,1.256397128,-1.335962296,-0.4419609904
10.18793895,1.220966935,-1.242041707,-0.4376849532
10.19793895,1.152397275,-1.148426652,-0.4297437072
10.20793895,1.075886369,-1.107651353,-0.4257730842
10.21793895,0.9815077186,-1.129489779,-0.4243986309
10.22793895,0.7973318696,-1.127810001,-0.4411974251
10.23793895,0.5595525503,-1.055575132,-0.4489859641
10.24793895,0.2333505303,-0.9695958495,-0.4528038502
10.25793895,-0.02351831272,-0.8399397135,-0.4918992519
10.26793895,0.04963280261,-0.6864598393,-0.5852088928
10.27793895,0.4476115108,-0.3733913898,-0.7673994899
10.28793895,0.7829765081,-0.2857322097,-0.8797986507
10.29793895,0.9801332951,-0.2426662147,-0.9506590366
10.30793895,1.186147571,-0.2223549485,-1.107193232
10.31793895,1.386205912,-0.2364048511,-1.488525867
10.32793895,1.443780065,-0.1218676195,-1.687057137
10.33793895,1.404684663,-0.1356120855,-1.499063253
10.34793895,1.36100781,-0.2890919745,-1.308167934
10.35793895,1.224784851,-0.3909537494,-1.120479584
10.36793895,1.297477722,-0.7493789196,-1.128573537
10.37793895,1.934457541,-0.8535314798,-1.193630695
10.38793895,2.538145065,-0.8078693151,-1.142012596
10.39793895,3.067001581,-1.219439745,-1.03404212
10.40793895,3.826001644,-2.036319256,-0.9859365225
10.41793895,4.165948391,-2.591595888,-1.203251839
10.42793895,4.047134876,-3.208875179,-1.571298122
10.43793895,3.637397051,-3.598149061,-1.815644264
10.44793895,2.77256465,-3.451388597,-1.926974416
10.45793895,1.8875736,-2.694068432,-2.103209019
10.46793895,1.608713627,-2.2186625,-1.951256275
10.47793895,1.897958279,-2.146885872,-1.7096591
10.48793895,2.176512957,-2.247220516,-1.621541739
10.49793895,2.588846922,-2.449875116,-1.629482985
10.50793895,3.077386379,-2.664747,-1.471574426
10.51793895,3.317303658,-2.809980154,-1.317636371
10.52793895,3.154049873,-2.694373846,-1.291063666
10.53793895,2.655125856,-2.320829868,-1.319927096
10.54793895,2.200031281,-1.791056871,-1.366505504
10.55793895,2.008372307,-1.218370676,-1.334893227
10.56793895,2.079385281,-0.9702067375,-1.311833143
10.57793895,2.279290915,-0.8423831463,-1.406669974
10.58793895,2.419942617,-0.793972075,-1.450652242
10.59793895,2.498438835,-0.7843509912,-1.47753036
10.60793895,2.543031931,-0.8283332586,-1.40331018
10.61793895,2.557081938,-0.8608618379,-1.268003583
10.62793895,2.565328598,-0.8191702962,-1.048092008
10.63793895,2.585639954,-0.4141666293,-0.8432994485
10.64793895,2.568993807,0.208305046,-0.8167268038
10.65793895,2.455983639,0.6536257863,-1.10108459
10.66793895,2.250580311,0.983951211,-1.833817482
10.67793895,2.257757902,0.6218608022,-2.404670954
10.68793895,2.513557673,0.4694499373,-2.480418444
10.69793895,2.542726517,0.6108652353,-2.497980595
10.70793895,2.353358269,0.3995058835,-2.572048187
10.71793895,2.131767035,0.00244346098,-2.605645657
10.72793895,1.96698606,-0.07773260027,-2.599689722
10.73793895,1.824349046,-0.04948008433,-2.473546028
10.74793895,1.709506392,0.01435533352,-2.275167704
10.75793895,1.481348276,0.125838235,-2.044718742
10.76793895,1.211498499,0.2260201424,-1.858099341
10.77793895,0.9552405477,0.1979203373,-1.725999713
10.78793895,0.7898487449,0.06536258012,-1.601841331
10.79793895,0.6385068893,-0.1177442744,-1.386511445
10.80793895,0.4787656367,-0.3257438838,-1.113912821
10.81793895,0.2744311988,-0.3677408695,-0.8013024926
10.82793895,-0.01588249579,-0.3074179292,-0.555123806
10.83793895,-0.2739730477,-0.2755002379,-0.4079052806
10.84793895,-0.5882632136,-0.2652682364,-0.2364048511
10.85793895,-0.8620835543,-0.2457205504,-0.1076650023
10.86793895,-1.03556931,-0.09865473956,0.001985311974
10.87793895,-1.105971575,0.05222897977,0.06154467165
10.88793895,-1.179428101,0.1554652005,0.09651670605
10.89793895,-1.273195863,0.1898263693,0.1065959856
10.90793895,-1.345125318,0.2591595948,0.0728456825
10.91793895,-1.36925447,0.326507479,0.03298672289
10.92793895,-1.378417373,0.3721696436,-0.03390302137
10.93793895,-1.402699351,0.4547891617,-0.1762346178
10.94793895,-1.426217675,0.5839871764,-0.3013092875
10.95793895,-1.51005888,0.609185338,-0.3523165286
10.96793895,-1.598328948,0.7026477456,-0.3735440969
10.97793895,-1.703092337,0.8513934612,-0.4214970171
10.98793895,-1.819920301,0.986700058,-0.5267185569
10.99793895,-1.877647042,1.087034702,-0.6139195561
11.00793895,-1.995391369,1.083064079,-0.562454164
11.01793895,-2.212706566,0.9746354818,-0.468686372
11.02793895,-2.544864655,0.9283624291,-0.2999348342
11.03793895,-2.814714432,1.027475357,-0.1438587606
11.04793895,-3.013550997,1.14491415,-0.05619960278
11.05793895,-3.076622725,1.291216373,-0.04062253982
11.06793895,-2.914438009,1.514793038,-0.006872233935
11.07793895,-2.626262426,1.663844228,-0.009010262787
11.08793895,-2.369393587,1.642311215,-0.0155770639
11.09793895,-2.213775635,1.544725537,-0.02855795063
11.10793895,-2.09389329,1.361313224,-0.09453139454
11.11793895,-2.195755005,1.347416043,-0.2128865421
11.12793895,-2.457663536,1.480431914,-0.4179845452
11.13793895,-2.748130083,1.42805028,-0.598495245
11.14793895,-2.86281991,1.348790407,-0.6927211881
11.15793895,-2.888323545,1.320232511,-0.9149234295
11.16793895,-2.747977257,1.049619198,-0.9007207751
11.17793895,-2.603660345,0.669508338,-0.6039929986
11.18793895,-2.612365246,0.3631593883,-0.2015855312
11.19793895,-2.662608862,0.05558873713,0.330478102
11.20793895,-2.684752703,-0.2527455091,0.8196284175
11.21793895,-2.658027411,-0.424856782,1.170112371
11.22793895,-2.671313763,-0.5652030706,1.256091714
11.23793895,-2.768594027,-0.5380195379,1.241736293
11.24793895,-2.832123995,-0.3373503387,1.200197458
11.25793895,-2.604729414,-0.2579378486,1.040303469
11.26793895,-2.02578187,-0.0004581489484,0.6488916278
11.27793895,-1.473865151,0.374002248,0.3263547719
11.28793895,-0.8910996914,0.492051959,-0.1036943719
11.29793895,-0.113926366,0.5725334287,-0.6991352439
11.30793895,1.117883444,0.1832595766,-1.20264101
11.31793895,1.973552942,-0.1562287807,-1.270599723
11.32793895,2.488054037,-0.1411098689,-0.9845620394
11.33793895,2.493704557,0.03588833287,-0.6160575747
11.34793895,2.311666727,-0.1513418704,-0.37751472
11.35793895,2.116495371,-0.2538145185,-0.2067778856
11.36793895,1.8767308,-0.1006400511,-0.007788531948
11.37793895,1.571145415,0.1229366288,0.1684460938
11.38793895,1.31045866,0.1695151031,0.310777694
11.39793895,1.133765936,-0.05345070735,0.3868304193
11.40793895,1.022893906,-0.3576616049,0.4158465266
11.41793895,0.8410087228,-0.7913759351,0.4456261992
11.42793895,0.5542075038,-0.9546296597,0.5600107312
11.43793895,0.1753183305,-0.9865473509,0.7057020664
11.44793895,-0.224187538,-0.9314168096,0.7799221873
11.45793895,-0.5148066878,-0.8611672521,0.7942775488
11.46793895,-0.8442157507,-0.6044511795,0.7144069076
11.47793895,-1.068403363,-0.4355469346,0.5593998432
11.48793895,-1.131475091,-0.4039346576,0.4657847583
11.49793895,-1.109636664,-0.4928155243,0.4053090811
11.50793895,-1.03969264,-0.6007859707,0.342389971
11.51793895,-0.9830349088,-0.6279694438,0.2664899528
11.52793895,-0.9457721114,-0.5485569835,0.1802052408
11.53793895,-0.908356607,-0.3859141171,0.09666942805
11.54793895,-0.8614727259,0.0262672063,-0.07086037099
11.55793895,-0.8877398968,0.5094616413,-0.3648392558
11.56793895,-0.9016370773,0.8672759533,-0.5887213945
11.57793895,-0.8915578127,0.9546296597,-0.6188064814
11.58793895,-0.8469646573,0.8147414923,-0.5146539807
11.59793895,-0.755182147,0.6357579827,-0.3216205537
11.60793895,-0.6716463566,0.6430884004,-0.1606575549
11.61793895,-0.6346889734,0.8481863737,-0.1583668143
11.62793895,-0.5726861954,0.999833703,-0.4115704596
11.63793895,-0.3909537494,1.083064079,-0.8790351152
11.64793895,0.0270307865,1.039081812,-0.955698669
11.65793895,0.735481739,0.936609149,-0.7583891749
11.66793895,1.392925501,0.9074403048,-0.3605632186
11.67793895,1.720654726,1.146899462,-0.2292271852
11.68793895,1.85046351,1.630857468,-0.1255328059
11.69793895,1.669342041,1.692707539,-0.1492038369
11.70793895,1.320537925,1.705688477,-0.0972802937
11.71793895,0.955698669,1.058476806,0.03420845419
11.72793895,0.4980078936,0.02382374369,0.2148718536
11.73793895,0.04214970022,-0.8530732989,0.2428189367
11.74793895,-0.3594942093,-1.297172308,0.169056952
11.75793895,-0.6044511795,-1.242041707,0.1136209369
11.76793895,-0.786641717,-0.8503243923,0.08552113175
11.77793895,-0.7903069258,-0.2933680415,0.01160643995
11.78793895,-0.6565274,0.03817907721,-0.04184427112
11.79793895,-0.4839579761,0.2055561543,-0.03023782931
11.80793895,-0.3804163337,0.1736384481,-0.04764748737
11.81793895,-0.3307835162,0.1142318025,-0.06887505949
11.82793895,-0.405461818,0.2057088763,-0.1353066564
11.83793895,-0.5196936131,0.2115120888,-0.07773260027
11.84793895,-0.5871942043,0.1111774743,-0.01221730467
11.85793895,-0.5661193728,-0.02229658142,-0.01420261711
11.86793895,-0.4399756789,0.003817907767,-0.0313068442
11.87793895,-0.2362521291,0.1250746548,-0.05787948146
11.88793895,-0.0201585535,0.1215621829,-0.08643743396
11.89793895,0.09162978828,0.2292271852,-0.04810563847
11.90793895,0.1010981947,0.03649919853,0.01053742506
11.91793895,0.0719293803,-0.2067778856,0.0545197241
11.92793895,0.07131851465,-0.1542434692,0.07681630552
11.93793895,0.1233947799,-0.08872817457,0.09529497474
11.94793895,0.184939459,-0.1004873365,0.1159116775
11.95793895,0.2295326144,-0.1392772794,0.1253800988
11.96793895,0.2490803003,-0.1281289905,0.1363756657
11.97793895,0.2434297949,-0.1637118906,0.149661988
11.98793895,0.2616030276,-0.1440114826,0.157145083
11.99793895,0.2732094824,-0.09101892263,0.137750119
12.00793895,0.2419026345,-0.0262672063,0.09911288321
12.01793895,0.1656972021,-0.03298672289,0.06383541971
12.02793895,0.08109235764,-0.0410806872,0.04199698567
12.03793895,-0.02382374369,0.01786780916,0.01679879427
12.04793895,-0.1182024255,0.104152523,-0.0155770639
12.05793895,-0.1734857261,0.1145372316,-0.02886338346
12.06793895,-0.1722639948,0.1134682223,-0.04718934
12.07793895,-0.1734857261,0.1065959856,-0.130114302
12.08793895,-0.2035708427,0.1543961912,-0.1994474977
12.09793895,-0.2406809032,0.1835650057,-0.2174680233
12.10793895,-0.2796235681,0.1548543423,-0.2041817009
12.11793895,-0.3019201458,0.1679879427,-0.1844813079
12.12793895,-0.3020728528,0.1837177277,-0.1576032341
12.13793895,-0.2762638032,0.1815796942,-0.1576032341
12.14793895,-0.2298380435,0.2044871449,-0.2028072625
12.15793895,-0.1951714456,0.2835941911,-0.2487748712
12.16793895,-0.1539380401,0.4375322461,-0.2932153046
12.17793895,-0.1348485053,0.4893030524,-0.3283400834
12.18793895,-0.1295034289,0.4453207552,-0.3396410644
12.19793895,-0.108123146,0.4062253833,-0.3094032407
12.20793895,-0.07757988572,0.4259257913,-0.2629774809
12.21793895,-0.05192354694,0.5557346344,-0.1792889535
12.22793895,-0.04627304152,0.7131851912,-0.06490442902
12.23793895,-0.03145955876,0.830776751,-0.01420261711
12.24793895,0.05192354694,0.6050620079,-0.04734205827
12.25793895,0.1956295967,0.149509266,-0.06215553731
12.26793895,0.1989893466,0.06856962293,-0.0491746515
12.27793895,0.1388191283,0.1794416606,-0.03756821156
12.28793895,0.0960585624,0.2744311988,-0.02962696366
12.29793895,0.04291328415,0.4207334518,0.0140499007
12.30793895,-0.03497203439,0.4786129296,0.03145955876
12.31793895,-0.09514226019,0.4780020416,0.03527746722
12.32793895,-0.1478293836,0.4627304375,0.03283400834
12.33793895,-0.1747074574,0.4465425014,0.02794708498
12.34793895,-0.1828014255,0.4085161388,-0.003970623948
12.35793895,-0.1673770845,0.3462078869,-0.00320704258
12.36793895,-0.1450804919,0.3233004212,-0.03145955876
12.37793895,-0.1340849251,0.3211624026,-0.06933320314
12.38793895,-0.1235474944,0.2623666227,-0.05864306539
12.39793895,-0.1235474944,0.145538643,0.009162978269
12.40793895,-0.1003346145,0.04169155285,0.008552113548
12.41793895,-0.05131268129,-0.05222897977,-0.001832595794
12.42793895,-0.02000583708,-0.1119410545,-0.003359758761
12.43793895,-0.005192354787,-0.1191187203,-0.001069014193
12.44793895,0.008857546374,-0.1681406647,0.02916881628
12.45793895,0.03237585723,-0.1837177277,0.01435533352
12.46793895,0.03940080851,-0.1615738571,0.01450804994
12.47793895,0.03176499158,-0.1371392459,0.0171042271
12.48793895,0.02275473066,-0.09926560521,0.01359175146
12.49793895,0.03054326214,-0.02672535367,0.005497787148
12.50793895,0.04703662544,0.03588833287,0.0009162978968
12.51793895,0.05161811411,0.06902777404,0.002290744567
12.52793895,0.02458732575,0.06994406879,0.009621127509
12.53793895,-0.01863138936,0.09269879758,0.01359175146
12.54793895,-0.05467243865,0.1340849251,0.01634064503
12.55793895,-0.05574145541,0.1230893433,0.01007927675
12.56793895,-0.006872233935,0.02550362423,-0.001527163084
12.57793895,0.04123340547,-0.1038470939,-0.01206458826
12.58793895,0.05421429127,-0.1649336219,-0.022143865
12.59793895,0.05238169432,-0.2176207453,-0.02244929783
12.60793895,0.05192354694,-0.2900082767,-0.0190895386
12.61793895,0.05192354694,-0.2900082767,-0.0190895386
12.62793895,0.07941248268,-0.4466952085,0.00320704258
12.63793895,0.09239336848,-0.5140430927,0.01740965992
12.64793895,0.08231408894,-0.4897612035,0.02122756653
12.65793895,0.04016438872,-0.3368921876,0.01237002108
12.66793895,-0.004581489135,-0.1840231568,-0.001374446787
12.67793895,-0.002748893574,-0.1226311997,-0.01328631863
12.68793895,0.02718350291,-0.1664607823,-0.01359175146
12.69793895,0.07819075137,-0.2247984111,-0.01145372353
12.70793895,0.09315694869,-0.2490803003,-0.007941247895
12.71793895,0.08170322329,-0.2113593817,-0.004123340361
12.72793895,0.05421429127,-0.1724167168,-0.005039638374
12.73793895,0.03084869497,-0.1566869318,-0.001374446787
12.74793895,0.04062253982,-0.1540907621,-0.002596177394
12.75793895,0.05054909736,-0.1711949855,-0.007483099122
12.76793895,0.05039638281,-0.1478293836,-0.01832595654
12.77793895,0.03894266114,-0.1209513173,-0.02550362423
12.78793895,0.02153299935,-0.1015563458,-0.02290744707
12.79793895,0.0140499007,-0.09300423414,-0.01924225502
12.80793895,0.01863138936,-0.06108652428,-0.01664607786
12.81793895,0.01847867295,-0.03665191308,-0.0140499007
12.82793895,0.003665191587,-0.03069597855,-0.001832595794
12.83793895,-0.01588249579,-0.03833179548,0.007941247895
12.84793895,-0.01221730467,-0.03466660157,0.01038470957
12.85793895,0.009926560335,-0.04780020565,0.005345070735
12.86793895,0.01618792862,-0.05879577994,0.002901609987
12.87793895,0.01496619824,-0.06001751125,-0.0007635815418
12.88793895,0.0109955743,-0.03313944116,-0.001832595794
12.89793895,0.02183843218,-0.004734205548,0.0007635815418
12.90793895,0.02199114859,-0.02076941915,-0.0006108652451
12.91793895,0.004886921961,-0.0282525178,0.001832595794
12.92793895,-0.01374446787,-0.0125227375,0.0007635815418
12.93793895,-0.01374446787,-0.01374446787,-0.00167987938
12.94793895,-0.003817907767,-0.01847867295,-0.005345070735
12.95793895,0.006261368748,-0.04046982154,-0.004276056774
12.96793895,0.009621127509,-0.02199114859,-0.005497787148
12.97793895,0.00320704258,0.01343903504,-0.006414085161
12.98793895,0.0006108652451,0.0232128799,-0.0003054326226
12.99793895,-0.001527163084,-0.002596177394,0.001985311974
13.00793895,-0.006566801574,-0.002596177394,-0.00167987938
13.01793895,-0.003970623948,-0.002596177394,-0.009010262787
13.02793895,-0.002748893574,-0.006261368748,-0.01023199316
13.03793895,-0.002748893574,-0.009926560335,-0.01023199316
13.04793895,-0.006414085161,-0.01359175146,-0.002901609987
13.05793895,-0.009010262787,-0.003817907767,-0.002901609987
13.06793895,-0.01267545391,-0.005192354787,0.001985311974
13.07793895,-0.01740965992,-0.007788531948,0.005650503561
13.08793895,-0.01389718428,-0.002748893574,0.006872233935
13.09793895,-0.005345070735,0.007177666761,0.005803219974
13.10793895,0.006872233935,0.0109955743,0.005803219974
13.11793895,0.009315694682,0.01221730467,0.002138028387
13.12793895,0.01420261711,0.0109955743,0.0009162978968
13.13793895,0.02290744707,0.0001527163113,-0.00167987938
13.14793895,0.02183843218,-0.0171042271,-0.001832595794
13.15793895,0.002290744567,-0.01970040426,-0.0004581489484
13.16793895,-0.007635815535,-0.01130100712,0.001985311974
13.17793895,-0.009010262787,0.005955935922,0.002138028387
13.18793895,-0.004123340361,0.003512475174,0.005650503561
13.19793895,-0.002748893574,-0.006261368748,0.005650503561
13.20793895,-0.001527163084,-0.002596177394,0.004428773187
13.21793895,0.004581489135,-0.003817907767,-0.00167987938
13.22793895,0.004734205548,-0.01481348183,-0.005345070735
13.23793895,-0.0001527163113,-0.0160352122,-0.005345070735
13.24793895,-0.001527163084,-0.006261368748,-0.00167987938
13.25793895,0.007024950348,-0.00244346098,-0.0004581489484
13.26793895,0.01084285788,-0.0109955743,0.001985311974
13.27793895,0.01450804994,-0.01588249579,0.004428773187
13.28793895,0.001069014193,-0.02458732575,0.004276056774
13.29793895,-0.004886921961,-0.03084869497,0.003054326167
13.30793895,-0.009926560335,-0.03207042441,0.001832595794
13.31793895,-0.002596177394,-0.022143865,-0.0004581489484
13.32793895,0.002138028387,-0.01237002108,-0.006566801574
13.33793895,0.007024950348,-0.009773843922,-0.006566801574
13.34793895,-0.001374446787,-0.0160352122,-0.002901609987
13.35793895,-0.01634064503,-0.002748893574,-0.002901609987
13.36793895,-0.02244929783,0.0009162978968,-0.002748893574
13.37793895,-0.01649336144,0.0155770639,-0.003970623948
13.38793895,-0.007941247895,0.01450804994,-0.0003054326226
13.39793895,-0.006566801574,0.002290744567,0.00320704258
13.40793895,-0.02244929783,-0.009010262787,0.01053742506
13.41793895,-0.02718350291,-0.01527163107,0.01053742506
13.42793895,-0.01374446787,-0.01985312067,0.0007635815418
13.43793895,0.00244346098,-0.03436116874,-0.003054326167
13.44793895,0.007483099122,-0.04413501546,-0.004276056774
13.45793895,0.01359175146,-0.04780020565,0.00167987938
13.46793895,-0.0171042271,-0.04566217586,0.007941247895
13.47793895,-0.03802636266,-0.0423024185,0.0140499007
13.48793895,-0.04673119262,-0.0313068442,0.01053742506
13.49793895,-0.03588833287,-0.01160643995,-0.0004581489484
13.50793895,-0.02855795063,0.0007635815418,-0.001527163084
13.51793895,-0.03726277873,-0.00167987938,-0.005192354787
13.52793895,-0.03970624134,0.009315694682,-0.006414085161
13.53793895,-0.03115412779,0.01069014147,-0.01618792862
13.54793895,-0.01053742506,0.02687807009,-0.02107485011
13.55793895,0.0006108652451,0.01466076635,-0.01007927675
13.56793895,0.003359758761,-0.01237002108,-0.002901609987
13.57793895,0.03436116874,-0.04016438872,0.004276056774
13.58793895,0.0726929605,-0.05696318299,0.006414085161
13.59793895,0.1010981947,-0.07131851465,0.008857546374
13.60793895,0.1172861308,-0.08720101416,0.008704829961
13.61793895,0.1145372316,-0.0723875314,0.002596177394
13.62793895,0.08933904022,-0.01130100712,-0.005497787148
13.63793895,0.03023782931,0.01374446787,0.001985311974
13.68585894,0.120187737,0.2037235647,-0.0313068442
13.69585894,0.1166752651,0.1852448881,-0.03252857551
13.70585894,0.1056796908,0.1777617931,-0.02412917651
13.71585894,0.1033889428,0.1727221459,-0.02046398632
13.72585894,0.0972802937,0.1566869318,-0.01679879427
13.73585894,0.08903361112,0.1284344196,-0.01450804994
13.74585894,0.08292495459,0.1221730486,-0.008399397135
13.75585894,0.07941248268,0.1136209369,-0.00244346098
13.76585894,0.07223481685,0.09132435173,0.004886921961
13.77585894,0.06887505949,0.07040221989,0.01450804994
13.78585894,0.06902777404,0.0532979928,0.01679879427
13.79585894,0.07040221989,0.04474587739,0.01191187184
13.80585894,0.05833763257,0.02367102914,0.01542434748
13.81585894,0.04978551716,0.01007927675,0.0190895386
13.82585894,0.04978551716,0.01267545391,0.01298088674
13.83585894,0.04978551716,0.01023199316,0.009315694682
13.84585894,0.04734205827,0.01023199316,0.005650503561
13.85585894,0.04856378585,0.01389718428,0.008093964309
13.86585894,0.05574145541,0.0262672063,0.005803219974
13.87585894,0.0545197241,0.03359758854,0.003359758761
13.88585894,0.05192354694,0.03970624134,-0.0003054326226
13.89585894,0.05192354694,0.04948008433,-0.001527163084
13.90585894,0.05192354694,0.05070181563,-0.003817907767
13.91585894,0.04566217586,0.05314527452,-0.005039638374
13.92585894,0.04550946131,0.06536258012,-0.006261368748
13.93585894,0.0552833043,0.07528914511,-0.008704829961
13.94585894,0.07116580009,0.0853684172,-0.01221730467
13.95585894,0.07009678334,0.06688974798,-0.01114829071
13.96585894,0.05925392732,0.04718934,-0.01130100712
13.97585894,0.05085453019,0.0262672063,-0.01130100712
13.98585894,0.06093380973,0.01038470957,-0.01511891466
13.99585894,0.08048149943,0.008246680722,-0.01756237634
14.00585894,0.09666942805,-0.005039638374,-0.01893682219
14.01585894,0.09208793938,-0.02962696366,-0.01298088674
14.02585894,0.09330966324,-0.03329215571,-0.01298088674
14.03585894,0.1043052375,-0.03451388702,-0.01175915636
14.04585894,0.1252273768,-0.03176499158,-0.01175915636
14.05585894,0.1327104717,-0.0415388383,-0.008246680722
14.06585894,0.1437060535,-0.04260785133,-0.004581489135
14.07585894,0.1522581577,-0.03390302137,-0.007024950348
14.08585894,0.1681406647,-0.02764165215,-0.002138028387
14.09585894,0.1780672222,-0.0410806872,0.007635815535
14.10585894,0.1893682331,-0.06429356337,0.02092213556
14.11585894,0.200821951,-0.09132435173,0.0354301855
14.12585894,0.2119702399,-0.1096503139,0.04260785133
14.13585894,0.235793978,-0.1437060535,0.04718934
14.14585894,0.2704605758,-0.1763873398,0.05436700583
14.15585894,0.3138320148,-0.2078468949,0.05772676691
14.16585894,0.3568980098,-0.2257147133,0.06001751125
14.17585894,0.4077525437,-0.2742784917,0.06093380973
14.18585894,0.4499022663,-0.3129157126,0.05696318299
14.19585894,0.492051959,-0.3455969989,0.05299255997
14.20585894,0.5267185569,-0.3758348525,0.05650503561
14.21585894,0.5540547967,-0.4050036669,0.06001751125
14.22585894,0.6154467463,-0.4007275999,0.06597344577
14.23585894,0.6948592067,-0.3593414724,0.06734789163
14.24585894,0.7643451095,-0.3156646192,0.05879577994
14.25585894,0.8116871715,-0.2696970105,0.0479529202
14.26585894,0.8666650653,-0.2469422817,0.03588833287
14.27585894,0.9172141552,-0.2623666227,0.04062253982
14.28585894,0.9547823668,-0.3307835162,0.07559457421
14.29585894,0.9818131924,-0.4398229718,0.104152523
14.30585894,0.9961684942,-0.5120577812,0.125838235
14.31585894,1.010676503,-0.613766849,0.1472185254
14.32585894,1.009912968,-0.7609853745,0.1524108797
14.33585894,1.001208186,-0.8677340746,0.1556179225
14.34585894,0.9749409556,-0.9317222238,0.1418734491
14.35585894,0.9358455539,-0.9526443481,0.08689557761
14.36585894,0.9611964822,-0.9236282706,-0.009468411095
14.37585894,1.075580955,-0.9488264322,-0.1087340117
14.38585894,1.20264101,-1.000902653,-0.1666134894
14.39585894,1.370018005,-1.046717644,-0.2037235647
14.40585894,1.566869378,-1.081231475,-0.2115120888
14.41585894,1.804801345,-1.062752843,-0.2118175179
14.42585894,2.058463097,-1.015868902,-0.1986839175
14.43585894,2.180025339,-1.011898279,-0.2220495194
14.44585894,2.254703522,-0.99586308,-0.3086396754
14.45585894,2.266004562,-1.03556931,-0.4273002446
14.46585894,2.262339354,-1.040150762,-0.4957171381
14.47585894,2.240500927,-1.066112518,-0.499535054
14.48585894,2.202474594,-1.059393048,-0.4602869749
14.49585894,2.230421782,-1.025031924,-0.3967569768
14.50585894,2.343889952,-0.96028018,-0.3477350473
14.51585894,2.394438982,-0.8704829812,-0.2997821271
14.52585894,2.36771369,-0.7816020846,-0.2539672256
14.53585894,2.332283497,-0.6673702598,-0.1350012124
14.54585894,2.34969306,-0.5707008839,-0.07101308554
14.55585894,2.368019104,-0.5752823353,-0.09056077152
14.56585894,2.364048481,-0.6572909951,-0.1154535338
14.57585894,2.352442026,-0.8374962807,-0.1554652005
14.58585894,2.406656265,-0.9619600177,-0.1574505121
14.59585894,2.468048334,-1.082758665,-0.1288925707
14.60585894,2.456747293,-1.276708364,-0.1189660057
14.61585894,2.40436554,-1.425454021,-0.1574505121
14.62585894,2.307085276,-1.413694859,-0.2341141105
14.63585894,2.09740591,-1.21195662,-0.3352122903
14.64585894,1.772120118,-1.225090265,-0.3872885704
14.65585894,1.652848601,-1.32282865,-0.4668537676
14.66585894,1.544878244,-1.218370676,-0.5174028873
14.67585894,1.387733102,-1.120632291,-0.5325217843
14.68585894,1.199433923,-0.9584475756,-0.5398521423
14.69585894,1.091158032,-0.8260425329,-0.5291619897
14.70585894,0.9453139901,-0.7447974682,-0.6786713004
14.71585894,0.7287622094,-0.6116288304,-1.007164121
14.72585894,0.4883867502,-0.5383250117,-1.224937558
14.73585894,0.3472768962,-0.6635523438,-1.251052022
14.74585894,0.2464841306,-0.8626944423,-1.133460522
14.75585894,0.03359758854,-1.151175499,-0.8440630436
14.76585894,-0.1806633919,-1.523039818,-0.5343543887
14.77585894,-0.3764457107,-1.695303798,-0.5777258277
14.78585894,-0.3484986126,-1.674687028,-0.715628624
14.79585894,-0.2079996169,-1.388038516,-0.8217664957
14.80585894,-0.2745839357,-0.9153815508,-0.8715519905
14.81585894,-0.2881756723,-0.5826127529,-0.9796751142
14.82585894,-0.2631302178,-0.4028656185,-1.072832108
14.83585894,-0.1091921628,-0.3437644243,-1.260673165
14.84585894,0.1039998084,-0.4202753007,-1.382387996
14.85585894,0.1595885456,-0.460134238,-1.383915186
14.86585894,-0.003054326167,-0.3906483352,-1.212262034
14.87585894,-0.1188132912,-0.3527746797,-1.177748203
14.88585894,-0.1163698286,-0.2414444834,-1.13926363
14.89585894,0.1353066564,-0.1209513173,-1.135445833
14.90585894,0.4295909703,-0.08353582025,-1.101542711
14.91585894,0.5703954101,-0.1559233516,-1.049619198
14.92585894,0.7194465399,-0.3200933933,-0.9885326624
14.93585894,0.8394815922,-0.5216789246,-1.082605958
14.94585894,0.9694431424,-0.6212499738,-1.2310462
14.95585894,1.21195662,-0.4598288238,-1.331991673
14.96585894,1.397048831,-0.1067487001,-1.409724236
14.97585894,1.484555244,0.1986839175,-1.479057431
14.98585894,1.338405728,0.3164281845,-1.546558142
14.99585894,1.098793864,0.2044871449,-1.753030539
15.00585894,0.9940304756,-0.102319926,-1.886351824
15.01585894,0.9300423265,-0.5418374538,-1.925294518
15.02585894,0.9552405477,-0.8278751373,-1.802357912
15.03585894,1.119716048,-0.6973026991,-1.576032281
15.04585894,1.338558435,-0.3839288056,-1.71271348
15.05585894,1.719280243,-0.06872233748,-1.873981833
15.06585894,2.089617252,-0.1276708394,-1.767538548
15.07585894,2.386039734,-0.5019785166,-1.563662291
15.08585894,2.411543369,-0.9236282706,-1.306029916
15.09585894,2.101529121,-1.297630548,-1.016937971
15.10585894,1.464702129,-2.202474594,-0.5079344511
15.11585894,1.316720009,-3.026379108,-0.1311833113
15.12585894,2.552958488,-2.727207899,-0.9935722947
15.13585894,3.540575027,-2.182468891,-2.387719631
15.14585894,4.189772129,-2.114051819,-3.687488079
15.15585894,4.815145493,-2.40741992,-4.149149418
15.16585894,5.340489388,-3.375641346,-3.598454475
15.17585894,5.033224106,-3.005304337,-1.591456652
15.18585894,3.639840603,-3.13404417,0.2463314086
15.19585894,1.433395267,-3.289051294,1.22951901
15.20585894,-0.3836233616,-2.512336016,1.245401502
15.21585894,-1.3733778,-1.174999356,0.625526011
15.22585894,-1.441183805,-0.1687515229,0.1098030284
15.23585894,-0.7791585922,0.1449277848,-0.09101892263
15.24585894,1.735010028,-0.2536617815,0.3199406862
15.25585894,3.755294085,-0.5041165352,0.681420207
15.26585894,4.314693928,-0.7066183686,0.4938845634
15.27585894,3.902359962,-0.4526511431,-0.5797111392
15.28585894,3.15466094,0.2428189367,-2.116495371
15.29585894,2.704147816,1.192256212,-3.094643354
15.30585894,2.467132092,1.31198585,-3.058144093
15.31585894,2.464230299,1.259145975,-2.83136034
15.32585894,2.422080755,1.19699049,-2.526386023
15.33585894,2.285246849,1.272737741,-2.10213995
15.34585894,2.274404049,1.164614558,-1.864666104
15.35585894,2.20522356,1.084285855,-1.888184428
15.36585894,2.099391222,1.224173903,-1.893376827
15.37585894,1.967902422,1.116967082,-1.852143407
15.38585894,1.736078978,0.865596056,-1.865277052
15.39585894,1.390176535,0.3946189582,-1.857488513
15.40585894,1.080467939,0.0853684172,-1.748754501
15.41585894,0.7522805333,-0.3133738637,-1.457371712
15.42585894,0.4502076805,-0.5091561675,-1.041525245
15.43585894,0.1226311997,-0.7312057018,-0.5563455224
15.44585894,-0.1545489132,-0.9815077186,-0.4240931869
15.45585894,-0.4066835344,-1.157742381,-0.3061962128
15.46585894,-0.5213735104,-1.21348381,-0.2183843255
15.47585894,-0.5036584139,-1.154840708,-0.153479889
15.48585894,-0.4046982229,-0.9882272482,-0.1539380401
15.49585894,-0.2396118939,-0.7092145681,-0.1795943826
15.50585894,-0.112093769,-0.4671591818,-0.2225076705
15.51585894,-0.03039054573,-0.08307767659,-0.365755558
15.52585894,-0.1127046347,0.1434006095,-0.4657847583
15.53585894,-0.3422372639,0.02748893574,-0.3610213697
15.54585894,-0.6010913849,-0.08368854225,-0.06337726861
15.55585894,-0.6940956116,0.1136209369,-0.01572977938
15.56585894,-0.7655668855,0.2518292069,-0.08323039114
15.57585894,-0.8805622458,0.2089159191,-0.1125519201
15.58585894,-1.01495266,0.2593123019,-0.1644754708
15.59585894,-1.062141895,0.3090978265,-0.1751656085
15.60585894,-1.082605958,0.2614503205,-0.2547308207
15.61585894,-1.129642606,0.2837468982,-0.3851505518
15.62585894,-1.209971309,0.3346014321,-0.4457789063
15.63585894,-1.332907915,0.3504839242,-0.4503603876
15.64585894,-1.448972344,0.4117231667,-0.4425718784
15.65585894,-1.527926683,0.558483541,-0.3133738637
15.66585894,-1.58794415,0.6661485434,-0.1736384481
15.67585894,-1.707673788,0.8527678847,-0.02092213556
15.68585894,-1.889711618,1.226617455,0.0716239512
15.69585894,-2.176512957,1.631926537,0.03161227703
15.70585894,-2.509281635,1.96698606,-0.04780020565
15.71585894,-2.668106556,2.116800785,0.01924225502
15.72585894,-2.77302289,2.07785821,0.2144137025
15.73585894,-2.816241503,1.890475273,0.5297728777
15.74585894,-2.79165411,1.661858916,0.6725626588
15.75585894,-2.72094655,1.492191076,0.688597858
15.76585894,-2.500118732,1.168585181,0.6815729141
15.77585894,-2.062739134,0.9086620808,0.6659958363
15.78585894,-1.838551641,0.3940080702,0.6226243973
15.79585894,-1.982410431,0.06429356337,0.5404630303
15.80585894,-2.297311544,-0.2148718536,0.5309945941
15.81585894,-2.578920364,-0.2837468982,0.6641632318
15.82585894,-2.839607,-0.1244637966,0.8303185701
15.83585894,-3.048522949,0.2428189367,0.9460775256
15.84585894,-3.096017838,0.5451972485,0.9246972799
15.85585894,-2.856100559,0.8162686825,0.7047857642
15.86585894,-2.437352419,0.9046914577,0.4150829315
15.87585894,-2.089464664,0.7524332404,0.2733621895
15.88585894,-1.840536952,0.7757988572,0.3182607889
15.89585894,-1.427744746,1.204473495,0.1207986027
15.90585894,-0.9060658813,1.427133918,-0.08888089657
15.91585894,-0.5506950021,1.256244421,-0.173333019
15.92585894,-0.4957171381,1.065196276,-0.1049161032
15.93585894,-0.4243986309,0.8197811842,-0.1233947799
15.94585894,-0.01786780916,0.3416263759,-0.4282165468
15.95585894,0.7489207983,0.1348485053,-0.9471465349
15.96585894,1.384984255,0.1307251602,-0.9298896194
15.97585894,1.656208396,0.3941608071,-0.590706706
15.98585894,1.528079391,0.5691736937,-0.1244637966
15.99585894,1.250899315,0.5677992702,0.2385428846
16.00585894,1.136056662,0.4117231667,0.5198463202
16.01585894,1.098793864,0.2425135076,0.6496551633
16.02585894,1.092532516,-0.2150245607,0.4812090993
16.03585894,0.9114109278,-0.1452332139,0.5612324476
16.04585894,0.6585127115,-0.1446223408,0.6044511795
16.05585894,0.4166100919,-0.2577851415,0.6407976151
16.06585894,0.2623666227,-0.4103487432,0.652556777
16.07585894,0.04780020565,-0.5474879742,0.6386595964
16.08585894,-0.1962404549,-0.5816964507,0.5681046844
16.09585894,-0.3900374472,-0.5995642543,0.5207626224
16.10585894,-0.464410305,-0.6551529765,0.4656320214
16.11585894,-0.4931209683,-0.7312057018,0.4017966092
16.12585894,-0.4984660447,-0.7996225953,0.3648392558
16.13585894,-0.495869875,-0.8252789378,0.3451388776
16.14585894,-0.5082398653,-0.8092437387,0.2927571833
16.15585894,-0.5106833577,-0.7121161819,0.2383901626
16.16585894,-0.4465425014,-0.6145304441,0.2425135076
16.17585894,-0.3430008292,-0.5329799056,0.3330742717
16.18585894,-0.2588541508,-0.4889976382,0.299018532
16.19585894,-0.1892155111,-0.4563163519,0.3087923825
16.20585894,-0.07590000331,-0.4929682612,0.3010038435
16.21585894,-0.04749477282,-0.5076290369,0.3240640163
16.22585894,-0.08246681094,-0.4477642179,0.3013092875
16.23585894,-0.1320996135,-0.4039346576,0.2710714638
16.24585894,-0.161115706,-0.3292563558,0.2153300047
16.25585894,-0.1618792862,-0.279470861,0.09361509979
16.26585894,-0.1276708394,-0.1484402567,-0.05345070735
16.27585894,-0.09025534242,0.1166752651,-0.2327396572
16.28585894,-0.05696318299,0.330478102,-0.2683225572
16.29585894,0.005192354787,0.4908302128,-0.3115412891
16.30585894,0.14156802,0.5942191482,-0.3222314119
16.31585894,0.3135266006,0.7000515461,-0.2742784917
16.32585894,0.4540255964,0.7612907887,-0.2180788964
16.33585894,0.5351179838,0.7704538107,-0.1620320082
16.34585894,0.4809036553,0.6740897894,-0.125838235
16.35585894,0.3152064681,0.4476115108,-0.06933320314
16.36585894,0.1085812971,0.1469130963,0.01847867295
16.37585894,-0.04062253982,-0.01572977938,0.07040221989
16.38585894,-0.1597412676,-0.1371392459,0.06505715102
16.39585894,-0.1798998117,-0.1973094791,0.05131268129
16.40585894,-0.1469130963,-0.2936734557,0.0313068442
16.41585894,-0.1296561509,-0.4208861589,-0.00244346098
16.42585894,-0.1137736514,-0.644615531,-0.06841690838
16.43585894,-0.09789115191,-0.7535023093,-0.09346238524
16.44585894,-0.1006400511,-0.7276932001,-0.08720101416
16.45585894,-0.1403462887,-0.6791294217,-0.08811730891
16.46585894,-0.2057088763,-0.5487096906,-0.09208793938
16.47585894,-0.2234239578,-0.3950771093,-0.1876883507
16.48585894,-0.2359467,-0.1463022232,-0.2034181207
16.49585894,-0.2545780838,-0.008246680722,-0.161115706
16.50585894,-0.2513710558,0.03711006418,-0.1316414624
16.51585894,-0.1924225539,0.04596760869,-0.06582073122
16.52585894,-0.08689557761,-0.06276640296,0.06414084882
16.53585894,-0.01893682219,-0.09254608303,0.05772676691
16.54585894,-0.001985311974,-0.07024950534,0.05054909736
16.55585894,0.02855795063,-0.0613919571,0.05421429127
16.56585894,0.08674286306,-0.112246491,0.05131268129
16.57585894,0.1424843222,-0.1446223408,0.03512475267
16.58585894,0.1925752759,-0.1304197311,0.007177666761
16.59585894,0.212275669,-0.1411098689,-0.02474004216
16.60585894,0.2160935849,-0.1568396538,-0.04673119262
16.61585894,0.228463605,-0.1664607823,-0.05177082866
16.62585894,0.2545780838,-0.1905899495,-0.06902777404
16.63585894,0.278859973,-0.1597412676,-0.06032294407
16.64585894,0.2803871334,-0.08277224004,-0.02336559631
16.65585894,0.2415972054,-0.01221730467,0.02107485011
16.66585894,0.1785253733,0.03084869497,0.06780604273
16.67585894,0.1278235465,0.06459899992,0.07788532227
16.68585894,0.1218676195,0.1679879427,0.0003054326226
16.69585894,0.1133155003,0.1663080603,0.0601702258
16.70585894,0.01634064503,0.05345070735,0.1000291854
16.71585894,-0.07513642311,-0.01496619824,0.07895433158
16.72585894,-0.084604837,-0.03573561832,0.0594066456
16.73585894,-0.04505131021,-0.06215553731,0.04688390717
16.74585894,-0.01069014147,-0.06795875728,0.05054909736
16.75585894,-0.0262672063,-0.0963639915,0.05283984542
16.76585894,-0.06215553731,-0.08078692853,0.03955352306
16.77585894,-0.1091921628,-0.04184427112,0.02031126991
16.78585894,-0.1151480973,-0.05177082866,0.01786780916
16.79585894,-0.09789115191,-0.06505715102,0.01160643995
16.80585894,-0.07742717117,-0.03039054573,-0.005345070735
16.81585894,-0.05925392732,0.0004581489484,-0.0003054326226
16.82585894,-0.03176499158,0.06658431143,0.06597344577
16.83585894,-0.01771509275,0.1290452778,0.1137736514
16.84585894,-0.02809980139,0.18875736,0.1521054506
16.85585894,-0.04092797264,0.2338086665,0.1901318133
16.86585894,-0.01053742506,0.2721404731,0.1682933718
16.87585894,0.006566801574,0.2645046413,0.05100724846
16.88585894,0.009315694682,0.2356412709,-0.05772676691
16.89585894,0.03161227703,0.2199114859,-0.05177082866
16.90585894,0.07330382615,0.2144137025,-0.07635815442
16.91585894,0.1128573567,0.1977676302,-0.08750644326
16.92585894,0.1191187203,0.1904372424,-0.07651086897
16.93585894,0.1047633886,0.1472185254,-0.05711590126
16.94585894,0.08659014851,0.126143679,-0.03527746722
16.95585894,0.07223481685,0.102472648,-0.006108652335
16.96585894,0.05894849449,0.07406741381,-0.0001527163113
16.97585894,0.03588833287,0.05787948146,-0.0001527163113
16.98585894,0.02000583708,0.04169155285,0.002290744567
16.99585894,0.009162978269,0.02565634064,0.0009162978968
17.00585894,0.008093964309,0.007330383174,0.001985311974
17.01585894,-0.002748893574,-0.001374446787,0.005650503561
17.02585894,-0.02260201424,0.01420261711,0.01069014147
17.03585894,-0.03497203439,0.02138028294,0.01924225502
17.04585894,-0.04978551716,0.02611448988,0.02306016348
17.05585894,-0.05115996301,0.04214970022,0.01695151068
17.06585894,-0.05955936015,0.02611448988,0.01817324013
17.07585894,-0.06795875728,0.01007927675,0.01924225502
17.08585894,-0.07406741381,0.008704829961,0.02168571576
17.09585894,-0.06291911751,-0.01191187184,0.01802052557
17.10585894,-0.05894849449,-0.03634648025,0.01175915636
17.11585894,-0.06520986557,-0.02168571576,0.005650503561
17.12585894,-0.06673702598,0.001527163084,0.0009162978968
17.13585894,-0.05818491429,0.007788531948,0.002138028387
17.14585894,-0.04596760869,0.01038470957,-0.002748893574
17.15585894,-0.03497203439,0.02031126991,-0.007635815535
17.16585894,-0.02779436857,0.03145955876,-0.007483099122
17.17585894,-0.02290744707,0.03527746722,-0.01237002108
17.18585894,-0.01298088674,0.02672535367,-0.01374446787
17.19585894,-0.006719517522,0.02443460934,-0.0125227375
17.20585894,0.007941247895,0.02580905706,-0.01374446787
17.21585894,0.02260201424,0.02474004216,-0.01740965992
17.22585894,0.01893682219,0.02840523422,-0.01496619824
17.23585894,0.003054326167,0.02199114859,-0.007635815535
17.24585894,-0.0006108652451,0.0232128799,-0.002748893574
17.25585894,0.005345070735,0.03420845419,-0.005192354787
17.26585894,0.01374446787,0.054061573,-0.006261368748
17.27585894,0.0125227375,0.05757404864,-0.001374446787
17.28585894,0.005039638374,0.06123924255,-0.001374446787
17.29585894,-0.008399397135,0.05864306539,0.003512475174
17.30585894,-0.02672535367,0.05589416996,0.007330383174
17.31585894,-0.03665191308,0.0545197241,0.007330383174
17.32585894,-0.03268129006,0.0410806872,0.005955935922
17.33585894,-0.02764165215,0.02275473066,0.009468411095
17.34585894,-0.02886338346,0.01664607786,0.008246680722
17.35585894,-0.02901609987,0.03512475267,0.002290744567
17.36585894,-0.02306016348,0.05238169432,-0.001374446787
17.37585894,-0.01572977938,0.05971207842,-0.00244346098
17.38585894,-0.02061670274,0.04749477282,-0.0001527163113
17.39585894,-0.02183843218,0.05115996301,0.003512475174
17.40585894,-0.01679879427,0.04627304152,0.002290744567
17.41585894,-0.009315694682,0.03405573592,-0.0001527163113
17.42585894,-0.007941247895,0.02428189293,-0.003970623948
17.43585894,0.004276056774,0.0171042271,-0.005192354787
17.44585894,0.01175915636,0.01847867295,-0.003970623948
17.45585894,-0.0006108652451,0.02199114859,-0.001527163084
17.46585894,-0.005650503561,0.03161227703,0.003359758761
17.47585894,-0.001832595794,0.02550362423,0.004581489135
17.48585894,0.0006108652451,0.01832595654,0.003359758761
17.49585894,-0.003054326167,0.01572977938,0.004581489135
17.50585894,-0.004123340361,-0.001374446787,0.00320704258
17.51585894,-0.001527163084,-0.01237002108,0.0007635815418
17.52585894,0.004734205548,-0.01237002108,-0.005345070735
17.53585894,0.01206458826,-0.0109955743,-0.005345070735
17.54585894,0.004734205548,-0.01481348183,0.001985311974
17.55585894,-0.01007927675,-0.01007927675,0.006872233935
17.56585894,-0.01756237634,0.0009162978968,0.009468411095
17.57585894,-0.009010262787,0.003359758761,0.008246680722
17.58585894,-0.01511891466,0.0009162978968,0.006872233935
17.59585894,-0.02748893574,0.006872233935,0.01313360315
17.60585894,-0.02489275858,0.0007635815418,0.01313360315
17.61585894,-0.01634064503,0.005803219974,0.005803219974
17.62585894,-0.009162978269,0.01939497143,0.0009162978968
17.63585894,-0.00167987938,0.01206458826,-0.003970623948
17.64585894,0.0007635815418,0.009773843922,-0.005192354787
17.65585894,-0.006566801574,-0.0001527163113,-0.002901609987
17.66585894,-0.01145372353,0.0009162978968,-0.0004581489484
17.67585894,-0.005192354787,-0.002596177394,0.004428773187
17.68585894,-0.001527163084,-0.009926560335,0.00320704258
17.69585894,-0.002748893574,-0.006261368748,0.00320704258
17.70585894,-0.002901609987,0.001069014193,0.0007635815418
17.71585894,-0.004123340361,0.002290744567,-0.00167987938
17.72585894,0.0007635815418,0.009773843922,-0.003970623948
17.73585894,0.005497787148,0.0232128799,-0.005192354787
17.74585894,0.01023199316,0.03680463135,-0.006261368748
17.75585894,0.01771509275,0.03451388702,-0.007635815535
17.76585894,0.009162978269,0.02580905706,-0.003970623948
17.77585894,-0.004276056774,0.02061670274,-0.001527163084
17.78585894,-0.003054326167,0.01572977938,0.0009162978968
17.79585894,0.0006108652451,0.01588249579,0.0009162978968
17.80585894,0.00320704258,0.01466076635,0.002138028387
17.81585894,0.0006108652451,0.01832595654,0.003359758761
17.82585894,-0.0004581489484,0.01206458826,0.003359758761
17.83585894,-0.005345070735,0.01206458826,0.008246680722
17.84585894,-0.006719517522,0.01572977938,0.009468411095
17.85585894,-0.002901609987,0.01084285788,0.004581489135
17.86585894,-0.009010262787,-0.0003054326226,0.004428773187
17.87585894,-0.01634064503,-0.006414085161,0.004428773187
17.88585894,-0.01863138936,-0.01511891466,0.004428773187
17.89585894,-0.01863138936,-0.01634064503,0.006872233935
17.90585894,-0.02244929783,-0.007788531948,0.01053742506
17.91585894,-0.02733621933,-0.00167987938,0.008246680722
17.92585894,-0.02764165215,0.01664607786,0.007024950348
17.93585894,-0.02993239649,0.01420261711,0.005803219974
17.94585894,-0.0361937657,0.01664607786,0.003359758761
17.95585894,-0.03863722831,0.01160643995,0.005803219974
17.96585894,-0.03726277873,0.003054326167,0.005803219974
17.97585894,-0.03115412779,0.005650503561,0.003359758761
17.98585894,-0.02871066704,0.009315694682,0.005803219974
17.99585894,-0.01282817032,0.01191187184,0.0009162978968
18.00585894,-0.004276056774,0.01817324013,-0.003970623948
18.01585894,-0.01160643995,0.01450804994,-0.006414085161
18.02585894,-0.02260201424,0.01435533352,-0.01130100712
18.03585894,-0.01389718428,0.002290744567,-0.0125227375
18.04585894,-0.006414085161,-0.007483099122,-0.01023199316
18.05585894,-0.04963280261,0.01649336144,-0.01359175146
18.06585894,-0.07177666575,0.01374446787,0.002290744567
18.07585894,-0.04214970022,-0.0006108652451,0.003359758761
18.08585894,0.01786780916,0.01725694351,0.004581489135
18.09585894,0.07910704613,0.03512475267,-0.005192354787
18.10585894,0.09514226019,0.02672535367,-0.005345070735
18.11585894,0.09376781434,0.03649919853,-0.003970623948
18.12585894,0.102319926,0.03420845419,-0.01145372353
18.13585894,0.1035416573,0.04520402849,-0.0125227375
18.14585894,0.09361509979,0.04642575979,-0.01496619824
18.15585894,0.07544185966,0.02641992271,-0.00167987938
18.20697725,0.122020334,0.03191770986,-0.005345070735
18.21697725,0.118049711,0.05879577994,-0.005192354787
18.22697725,0.1069014147,0.07345654815,0.001069014193
18.23697725,0.09086620808,0.0731511116,0.003512475174
18.24697725,0.07864890248,0.06688974798,0.003512475174
18.25697725,0.07895433158,0.04963280261,0.01679879427
18.26697725,0.07299839705,0.02504547499,0.0190895386
18.27697725,0.06230825558,-0.009468411095,0.02748893574
18.28697725,0.05268712714,-0.02916881628,0.03237585723
18.29697725,0.05513058975,-0.02916881628,0.03115412779
18.30697725,0.05268712714,-0.02794708498,0.03115412779
18.31697725,0.04291328415,-0.03420845419,0.02977968007
18.32697725,0.03558290005,-0.03054326214,0.02993239649
18.33697725,0.04413501546,-0.02428189293,0.02871066704
18.34697725,0.04520402849,-0.01084285788,0.0262672063
18.35697725,0.03894266114,-0.001069014193,0.02275473066
18.36697725,0.03145955876,0.01237002108,0.0239764601
18.37697725,0.03634648025,0.01114829071,0.02275473066
18.38697725,0.04978551716,0.01878410578,0.0190895386
18.39697725,0.04474587739,0.03329215571,0.02046398632
18.40697725,0.03481931984,0.04062253982,0.01802052557
18.41697725,0.03237585723,0.03451388702,0.02046398632
18.42697725,0.04489859566,0.01863138936,0.0239764601
18.43697725,0.07941248268,0.004276056774,0.03115412779
18.44697725,0.09773843735,0.0155770639,0.0251981914
18.45697725,0.09132435173,0.03756821156,0.02412917651
18.46697725,0.07773260027,0.0423024185,0.02168571576
18.47697725,0.06658431143,0.0594066456,0.01695151068
18.48697725,0.06887505949,0.07040221989,0.009621127509
18.49697725,0.07498370856,0.07055493444,0.002290744567
18.50697725,0.06169738993,0.05574145541,-0.001374446787
18.51697725,0.03848451003,0.04199698567,-0.002748893574
18.52697725,0.03481931984,0.03084869497,0.0009162978968
18.53697725,0.04856378585,0.01267545391,0.006872233935
18.54697725,0.05864306539,-0.01420261711,0.0140499007
18.55697725,0.04535674304,-0.03161227703,0.0201585535
18.56697725,0.03329215571,-0.04764748737,0.02489275858
18.57697725,0.02351831272,-0.05757404864,0.02733621933
18.58697725,0.02122756653,-0.06627888232,0.03100141138
18.59697725,0.03222314268,-0.06734789163,0.03084869497
18.60697725,0.04581489414,-0.06230825558,0.03084869497
18.61697725,0.05787948146,-0.04260785133,0.02977968007
18.62697725,0.06734789163,-0.02031126991,0.0262672063
18.63697725,0.06719517708,-0.001985311974,0.0262672063
18.64697725,0.05849034712,0.004123340361,0.02641992271
18.65697725,0.04138612002,0.006261368748,0.0251981914
18.66697725,0.03512475267,0.009926560335,0.01786780916
18.67697725,0.04123340547,0.008857546374,0.01542434748
18.68697725,0.04505131021,0.002748893574,0.01786780916
18.69697725,0.05497787148,-0.008246680722,0.02138028294
18.70697725,0.06108652428,-0.01053742506,0.02138028294
18.71697725,0.05009094998,-0.01435533352,0.02504547499
18.72697725,0.03680463135,-0.02443460934,0.02871066704
18.73697725,0.0282525178,-0.03436116874,0.02993239649
18.74697725,0.03069597855,-0.03680463135,0.03237585723
18.75697725,0.02458732575,-0.03924809024,0.03466660157
18.76697725,0.01725694351,-0.03817907721,0.03359758854
18.77697725,0.01359175146,-0.0369573459,0.03481931984
18.78697725,0.009926560335,-0.03573561832,0.03604105115
18.79697725,0.009926560335,-0.0369573459,0.03481931984
18.80697725,0.01343903504,-0.02962696366,0.03359758854
18.81697725,0.01954768784,-0.02947424725,0.03359758854
18.82697725,0.0282525178,-0.0282525178,0.03726277873
18.83697725,0.0293215327,-0.02580905706,0.03481931984
18.84697725,0.03527746722,-0.008399397135,0.02764165215
18.85697725,0.04031710699,-0.009621127509,0.02504547499
18.86697725,0.0415388383,-0.01328631863,0.02260201424
18.87697725,0.04276056588,-0.008399397135,0.01893682219
18.88697725,0.04749477282,0.007635815535,0.01420261711
18.89697725,0.05115996301,0.007788531948,0.008093964309
18.90697725,0.05238169432,0.00167987938,0.005650503561
18.91697725,0.05482515693,0.002901609987,0.008093964309
18.92697725,0.05726861581,0.005345070735,0.009315694682
18.93697725,0.05238169432,0.00167987938,0.01053742506
18.94697725,0.04627304152,0.001527163084,0.01175915636
18.95697725,0.04749477282,-0.004581489135,0.01420261711
18.96697725,0.05742133409,-0.01053742506,0.0140499007
18.97697725,0.06261368841,-0.02779436857,0.02138028294
18.98697725,0.06276640296,-0.04367686436,0.02489275858
18.99697725,0.05787948146,-0.04871650413,0.02489275858
19.00697725,0.05054909736,-0.05971207842,0.02489275858
19.01697725,0.04459316283,-0.0720821023,0.02351831272
19.02697725,0.04581489414,-0.06352998316,0.01878410578
19.03697725,0.05054909736,-0.05604688451,0.01878410578
19.04697725,0.05054909736,-0.05604688451,0.01878410578
19.05697725,0.05665775016,-0.04734205827,0.01511891466
19.06697725,0.06398813426,-0.04978551716,0.01389718428
19.07697725,0.06383541971,-0.03985895589,0.006566801574
19.08697725,0.06246097013,-0.0190895386,0.003054326167
19.09697725,0.05497787148,-0.004428773187,-0.00167987938
19.10697725,0.04612032697,0.01023199316,-0.006566801574
19.11697725,0.04612032697,0.01634064503,-0.01145372353
19.12697725,0.04856378585,0.01023199316,-0.009010262787
19.13697725,0.05604688451,0.0006108652451,-0.009010262787
19.14697725,0.05864306539,-0.01175915636,-0.007941247895
19.15697725,0.05390885845,-0.02641992271,-0.005497787148
19.16697725,0.04657847434,-0.03390302137,-0.005497787148
19.17697725,0.03940080851,-0.05115996301,-0.004428773187
19.18697725,0.03222314268,-0.06230825558,-0.006872233935
19.19697725,0.03237585723,-0.08063421398,-0.004581489135
19.20697725,0.04612032697,-0.1050688252,0.0001527163113
19.21697725,0.06704246253,-0.1098030284,0.001374446787
19.22697725,0.09422596544,-0.1131627858,0.003665191587
19.23697725,0.1027780771,-0.1203404516,0.007330383174
19.24697725,0.1114829108,-0.1191187203,0.008552113548
19.25697725,0.1151480973,-0.123852931,0.004886921961
19.26697725,0.114079088,-0.133779496,0.007177666761
19.27697725,0.1214094684,-0.1287398487,0.01206458826
19.28697725,0.123852931,-0.1287398487,0.01817324013
19.29697725,0.133474052,-0.1165225431,0.02443460934
19.30697725,0.1420261711,-0.1102611795,0.02809980139
19.31697725,0.1443169117,-0.09437867999,0.03054326214
19.32697725,0.1525636017,-0.05742133409,0.03069597855
19.33697725,0.1585195363,-0.04749477282,0.02474004216
19.34697725,0.1685988009,-0.0719293803,0.01725694351
19.35697725,0.1860084683,-0.08521570265,0.01343903504
19.36697725,0.2144137025,-0.1117883399,0.005955935922
19.37697725,0.2449569702,-0.09911288321,0.003512475174
19.38697725,0.2710714638,-0.1270599663,-0.0003054326226
19.39697725,0.295353353,-0.09987647086,-0.006261368748
19.40697725,0.3060434759,-0.0726929605,-0.01725694351
19.41697725,0.3049744666,-0.08124507964,-0.0282525178
19.42697725,0.2988658249,-0.08368854225,-0.03680463135
19.43697725,0.318413496,-0.07849618047,-0.03558290005
19.44697725,0.3404046595,-0.07223481685,-0.03558290005
19.45697725,0.3549126983,-0.04627304152,-0.02687807009
19.46697725,0.3536909819,-0.04276056588,-0.01221730467
19.47697725,0.3489567637,-0.05635231733,0.001069014193
19.48697725,0.3539963961,-0.06368270516,0.01817324013
19.49697725,0.3787364662,-0.08918632567,0.02168571576
19.50697725,0.4097378552,-0.1085812971,0.02641992271
19.51697725,0.444709897,-0.1669189334,0.01985312067
19.52697725,0.4767803252,-0.1800525337,0.02107485011
19.53697725,0.5018258095,-0.2238821089,0.01588249579
19.54697725,0.5164865851,-0.2225076705,0.009773843922
19.55697725,0.5054910183,-0.2261728644,-0.006108652335
19.56697725,0.475864023,-0.2069306076,0.001374446787
19.57697725,0.4925101101,-0.282830596,0.004581489135
19.58697725,0.5445863605,-0.3251330256,0.0140499007
19.59697725,0.6084218025,-0.3220787048,0.02000583708
19.60697725,0.6736316681,-0.3361285925,0.02718350291
19.61697725,0.6940956116,-0.4021020532,0.03527746722
19.62697725,0.7124215961,-0.5085453391,0.02733621933
19.63697725,0.7374670506,-0.5621487498,0.01114829071
19.64697725,0.7817547917,-0.6756169796,0.00320704258
19.65697725,0.8358163834,-0.6785185933,-0.01282817032
19.66697725,0.8765916228,-0.5994115472,-0.05390885845
19.67697725,0.861014545,-0.5172501206,-0.09254608303
19.68697725,0.8234463334,-0.4573853612,-0.12996158
19.69697725,0.7947356701,-0.4207334518,-0.1518000066
19.70697725,0.7701483369,-0.4111123085,-0.1748601794
19.71697725,0.8106181622,-0.4095851481,-0.1601994038
19.72697725,0.9335548282,-0.4207334518,-0.09453139454
19.73697725,1.106276989,-0.4951062799,-0.06597344577
19.74697725,1.251510143,-0.5337435007,-0.07987063378
19.75697725,1.382387996,-0.597273469,-0.1000291854
19.76697725,1.464549422,-0.7031059265,-0.07498370856
19.77697725,1.523192525,-0.7811439037,-0.04871650413
19.78697725,1.503950238,-0.8266534209,-0.05742133409
19.79697725,1.379791856,-0.9205739498,-0.1725694388
19.80697725,1.273195863,-1.054353356,-0.1204931661
19.81697725,1.234405994,-1.217759848,-0.1421788931
19.82697725,1.235016823,-1.271363258,-0.2095267773
19.83697725,1.24341619,-1.264796495,-0.2608394623
19.84697725,1.286634922,-1.282511592,-0.3049744666
19.85697725,1.416901946,-1.293201685,-0.3100140989
19.86697725,1.584431767,-1.237612963,-0.2735149264
19.87697725,1.688431501,-1.078635335,-0.236099422
19.88697725,1.700954318,-0.8799513578,-0.2070833147
19.89697725,1.637118816,-0.7677049041,-0.2307543457
19.90697725,1.592831135,-0.7606799603,-0.2819143236
19.91697725,1.598481655,-0.7199047208,-0.3121521473
19.92697725,1.616044044,-0.6397286057,-0.3546072841
19.93697725,1.597259879,-0.6116288304,-0.3848451078
19.94697725,1.562898755,-0.7225008607,-0.3720169365
19.95697725,1.561218858,-0.916297853,-0.3462078869
19.96697725,1.589013219,-1.09131074,-0.3483459055
19.97697725,1.648114443,-1.330922604,-0.3607159257
19.98697725,1.725236177,-1.436602354,-0.370031625
19.99697725,1.765553236,-1.416749239,-0.3394883573
20.00697725,1.730428576,-1.343750834,-0.3072652221
20.01697725,1.629024863,-1.26769805,-0.287106663
20.02697725,1.583973527,-1.189812779,-0.2878702581
20.03697725,1.623985291,-1.145066857,-0.3084869385
20.04697725,1.688126087,-1.182329655,-0.3197879493
20.05697725,1.75654304,-1.257771492,-0.2897028327
20.06697725,1.782199383,-1.359480619,-0.2353358418
20.07697725,1.760513663,-1.491427541,-0.1322523206
20.08697725,1.733635545,-1.624596119,-0.06459899992
20.09697725,1.698816299,-1.694845676,-0.06368270516
20.10697725,1.569160104,-1.621389031,-0.0838412568
20.11697725,1.375821233,-1.465465665,-0.07040221989
20.12697725,1.177595496,-1.409876943,-0.08567385375
20.13697725,1.088867307,-1.498757839,-0.1531744599
20.14697725,1.046106696,-1.638493299,-0.2405281961
20.15697725,0.9506590366,-1.662469745,-0.334448725
20.16697725,1.00670588,-1.746005535,-0.3874412775
20.17697725,1.315192819,-1.772883654,-0.4674646258
20.18697725,1.40483737,-1.676061511,-0.503811121
20.19697725,1.330922604,-1.534340739,-0.5639813542
20.20697725,1.277319193,-1.57862854,-0.6470590234
20.21697725,1.290452838,-1.668731093,-0.7220427394
20.22697725,1.313818455,-1.667204022,-0.7403686643
20.23697725,1.387274981,-1.646434546,-0.8014551997
20.24697725,1.304197311,-1.691180468,-0.8407033086
20.25697725,1.165683627,-1.718058467,-0.9065240026
20.26697725,1.243263483,-1.628566742,-0.9915869832
20.27697725,1.408044338,-1.5512923,-1.10261178
20.28697725,1.583668113,-1.570229053,-1.321454287
20.29697725,1.765705943,-1.720654726,-1.444696307
20.30697725,1.846798301,-1.835955501,-1.495398164
20.31697725,1.8411479,-2.000125647,-1.543961883
20.32697725,1.813658953,-2.186286688,-1.62917757
20.33697725,1.780366778,-2.294104338,-1.715156913
20.34697725,1.771203756,-2.463466883,-1.702634096
20.35697725,1.734093666,-2.545933723,-1.691944003
20.36697725,1.548390627,-2.644741058,-1.723861694
20.37697725,1.463327646,-2.495537281,-1.830457687
20.38697725,1.54457283,-2.308459759,-2.011426449
20.39697725,1.73592627,-1.954005241,-2.101376534
20.40697725,1.87001121,-1.755168557,-2.09694767
20.41697725,1.915062547,-1.714393258,-2.051590919
20.42697725,1.864055276,-1.878410578,-1.996307611
20.43697725,1.840231538,-2.16246295,-1.874439955
20.44697725,1.741729498,-2.348318815,-1.721418262
20.45697725,1.505630136,-2.418720961,-1.458898902
20.46697725,1.173624873,-2.784934759,-0.849866271
20.47697725,0.8219192028,-3.609755516,-0.2884811163
20.48697725,0.7411322594,-3.962224722,-0.3196352422
20.49697725,1.032820463,-3.609755516,-0.7284567952
20.50697725,1.780519485,-2.959489346,-1.308473349
20.51697725,2.23622489,-2.072513103,-1.410793304
20.52697725,2.274709463,-1.193477988,-1.099710107
20.53697725,2.17116785,-0.4639521539,-0.8770498037
20.54697725,2.123978376,0.05635231733,-0.6311765313
20.55697725,2.087173939,-0.03802636266,-0.2776382565
20.56697725,1.650252461,-0.6346889734,-0.326507479
20.57697725,0.8720101118,-1.372461438,-1.040914416
20.58697725,0.3988949955,-1.700648785,-1.613142371
20.59697725,0.1774563491,-1.884824753,-1.564884067
20.60697725,0.2971859276,-1.590693116,-1.307098866
20.61697725,0.7521278262,-0.7330383062,-1.16659987
20.62697725,1.027933478,-0.01893682219,-1.184009552
20.63697725,1.151022792,0.6220135093,-1.335809588
20.64697725,1.152702689,1.028697014,-1.492343783
20.65697725,1.187063932,1.245401502,-1.58275187
20.66697725,1.188438296,1.342681766,-1.655597568
20.67697725,1.147052169,1.531439185,-1.739896894
20.68697725,1.05985117,1.636507988,-1.850310802
20.69697725,0.9175195694,1.507004619,-1.98867178
20.70697725,0.7832819819,1.312596679,-2.125047445
20.71697725,0.6785185933,1.124144793,-2.180788994
20.72697725,0.4615086913,0.8713992834,-2.135432243
20.73697725,0.1340849251,0.6203336716,-1.940871596
20.74697725,-0.2448042482,0.2510656118,-1.570992708
20.75697725,-0.5490151644,-0.09575312585,-1.301295638
20.76697725,-0.8208501935,-0.3819434941,-1.102153659
20.77697725,-0.9239336848,-0.6099489331,-1.070235968
20.78697725,-0.8155050874,-0.7641924024,-1.123839378
20.79697725,-0.5835290551,-0.7480044961,-1.148579359
20.80697725,-0.424551338,-0.6957755089,-1.177748203
20.81697725,-0.3191770911,-0.5694791079,-1.212720275
20.82697725,-0.3048217595,-0.428827405,-1.321912408
20.83697725,-0.3671300113,-0.3475823104,-1.519069195
20.84697725,-0.4656320214,-0.22434026,-1.606117487
20.85697725,-0.6171266437,-0.05100724846,-1.548848867
20.86697725,-0.7681630254,0.07376197726,-1.352608323
20.87697725,-0.862236321,0.1560760736,-1.148121238
20.88697725,-0.9234755635,0.2567161322,-1.052215338
20.89697725,-0.9285151958,0.4973970354,-0.9337075353
20.90697725,-0.9286679029,0.7502952218,-0.7699956298
20.91697725,-0.9880745411,1.022435665,-0.6670648456
20.92697725,-1.151328325,1.255480766,-0.5581781268
20.93697725,-1.336420417,1.344667077,-0.429132849
20.94697725,-1.597259879,1.414153099,-0.2183843255
20.95697725,-1.814269781,1.510211587,-0.07956519723
20.96697725,-2.023491144,1.564731359,0.06276640296
20.97697725,-2.185523033,1.558775425,0.1398881376
20.98697725,-2.325258493,1.539075017,0.1058324054
20.99697725,-2.417499304,1.537700534,-0.04902193695
21.00697725,-2.484389067,1.594052911,-0.1744020283
21.01697725,-2.553874969,1.649947047,-0.2277000248
21.02697725,-2.588083267,1.749059916,-0.255188942
21.03697725,-2.585945368,1.891391516,-0.2813034356
21.04697725,-2.547766209,1.99019897,-0.3320052624
21.05697725,-2.474767923,1.936290145,-0.4118759036
21.06697725,-2.394438982,1.762498975,-0.5325217843
21.07697725,-2.261728525,1.513571382,-0.6806566119
21.08697725,-2.117869854,1.375668526,-0.7279986739
21.09697725,-2.097253084,1.290605545,-0.817643106
21.10697725,-2.170557022,1.354440928,-0.9856310487
21.11697725,-2.177429199,1.643227458,-1.120784998
21.12697725,-2.113288403,2.0763309,-1.056338668
21.13697725,-2.060906649,2.57342267,-0.8327620625
21.14697725,-2.048078537,2.880076885,-0.6149885654
21.15697725,-2.089617252,2.985298395,-0.4557054639
21.16697725,-2.128712654,2.973844767,-0.2359467
21.17697725,-2.069458723,2.742021322,0.1166752651
21.18697725,-2.135432243,2.27638936,0.4036292136
21.19697725,-2.469880819,1.978439808,0.3819434941
21.20697725,-3.123506784,1.664607763,-0.0190895386
21.21697725,-3.34402895,1.256091714,-0.4164573848
21.22697725,-2.765539646,0.5517640114,-0.4725042582
21.23697725,-1.961030126,-0.1484402567,-0.3738495409
21.24697725,-1.420414448,-0.7397578359,-0.1313360333
21.25697725,-0.4554000497,-1.615585804,0.1235474944
21.26697725,0.9747881889,-2.280665398,0.01007927675
21.27697725,2.210110426,-2.762332678,-0.2034181207
21.28697725,2.792264938,-2.682920218,-0.3297145069
21.29697725,3.103042841,-1.907732129,-0.4140139222
21.30697725,2.859002113,-1.027169943,-0.3123048544
21.31697725,2.408030748,-0.184634015,-0.1666134894
21.32697725,2.058005095,0.3911064863,-0.120187737
21.33697725,1.75348866,0.7304421067,-0.02275473066
21.34697725,1.629330277,0.5313000679,0.06185010448
21.35697725,1.549001575,0.1404990107,0.2784018219
21.36697725,1.345430732,-0.3181080818,0.5668829679
21.37697725,1.075428247,-0.6595817208,0.7950411439
21.38697725,0.6229298115,-1.035874724,0.9744827747
21.39697725,0.1577559561,-1.270447016,1.019228697
21.40697725,-0.184786737,-1.275028467,0.9306532145
21.41697725,-0.3321579695,-1.060156584,0.7953465581
21.42697725,-0.3312416673,-0.6976081133,0.6409503818
21.43697725,-0.2104430795,-0.4095851481,0.4470006526
21.44697725,-0.08185594529,-0.2704605758,0.401185751
21.45697725,-0.02229658142,-0.3284927905,0.3677408695
21.46697725,-0.05436700583,-0.4415028691,0.3416263759
21.47697725,-0.1850921661,-0.6059783101,0.3396410644
21.48697725,-0.3550654352,-0.6754642725,0.3665191531
21.49697725,-0.5280929804,-0.6788240075,0.3984368443
21.50697725,-0.6304129362,-0.6385068893,0.433103472
21.51697725,-0.7113525867,-0.535423398,0.4703662395
21.52697725,-0.7779368758,-0.3915646076,0.4969388843
21.53697725,-0.8466592431,-0.1608102769,0.5166392922
21.54697725,-0.9158397317,0.102319926,0.4839579761
21.55697725,-0.9943358898,0.3210096955,0.4511239827
21.56697725,-0.9650143981,0.5534439087,0.3802636266
21.57697725,-0.8593347073,0.7625125647,0.2638937831
21.58697725,-0.6992880106,1.054353356,0.1285871267
21.59697725,-0.590706706,1.214705586,-0.06612616032
21.60697725,-0.5462662578,1.409266114,-0.3495676219
21.61697725,-0.6128505468,1.534951687,-0.5868887901
21.62697725,-0.7212791443,1.558164477,-0.7892379165
21.63697725,-0.7586946487,1.486082435,-0.8993463516
21.64697725,-0.7362453341,1.340543747,-0.9308059216
21.65697725,-0.7565566301,1.188743711,-0.7716755271
21.66697725,-0.7530441284,1.0995574,-0.6206390858
21.67697725,-0.5361869931,0.9251554012,-0.3362813294
21.68697725,-0.1533271819,0.6299547553,-0.06505715102
21.69697725,0.5419901609,0.1557706445,0.1594358236
21.70697725,1.164767265,-0.1014036313,0.2496911734
21.71697725,1.4801265,-0.1947132945,0.2561052442
21.72697725,1.520596266,-0.1939497143,0.1997529417
21.73697725,1.397812366,-0.299323976,0.1444696337
21.74697725,1.178206325,-0.4390594065,0.161268428
21.75697725,0.8940013051,-0.6114761233,0.157145083
21.76697725,0.6455318332,-0.7857254148,0.1346957833
21.77697725,0.381485343,-1.018923283,0.1119410545
21.78697725,0.1704314053,-1.132849574,0.1079704314
21.79697725,0.005192354787,-1.075733662,0.08659014851
21.80697725,-0.1076650023,-0.8536841869,0.04276056588
21.81697725,-0.1510364264,-0.6013968587,0.008857546374
21.82697725,-0.1669189334,-0.2729040384,-0.002748893574
21.83697725,-0.1912008226,-0.05879577994,0.01420261711
21.84697725,-0.2544253767,-0.01160643995,0.0232128799
21.85697725,-0.3060434759,-0.009773843922,0.0232128799
21.86697725,-0.3371976018,-0.07498370856,0.003359758761
21.87697725,-0.3404046595,-0.1275181174,-0.02611448988
21.88697725,-0.3494149148,-0.1962404549,-0.0545197241
21.89697725,-0.3718642294,-0.2773328125,-0.06597344577
21.90697725,-0.3978259861,-0.3755294085,-0.08109235764
21.91697725,-0.4105014503,-0.456469059,-0.1047633886
21.92697725,-0.3869831264,-0.4783074856,-0.1073595658
21.93697725,-0.3196352422,-0.448222369,-0.09132435173
21.94697725,-0.2353358418,-0.4095851481,-0.03634648025
21.95697725,-0.108123146,-0.3596469164,0.05894849449
21.96697725,0.01863138936,-0.2739730477,0.1324050426
21.97697725,0.1212567538,-0.2179261744,0.1727221459
21.98697725,0.1660026312,-0.1586722434,0.1791362315
21.99697725,0.1632537395,-0.1316414624,0.1621847153
22.00697725,0.1446223408,-0.1204931661,0.1171334088
22.01697725,0.1631010175,-0.1322523206,0.04627304152
22.02697725,0.2037235647,-0.1435533315,-0.02718350291
22.03697725,0.2406809032,-0.1553124934,-0.05910121277
22.04697725,0.2666426897,-0.1721112877,-0.07864890248
22.05697725,0.2767219543,-0.1915062517,-0.07880161703
22.06697725,0.2722931802,-0.1304197311,-0.06505715102
22.07697725,0.2364048511,-0.09529497474,-0.03787364438
22.08697725,0.1637118906,-0.07422012836,-0.008399397135
22.09697725,0.08017606288,-0.06551529467,0.01496619824
22.10697725,0.002596177394,-0.04444044828,0.03604105115
22.11697725,-0.07620543987,-0.02458732575,0.0545197241
22.12697725,-0.1203404516,-0.02641992271,0.06673702598
22.13697725,-0.1597412676,-0.02076941915,0.07666359097
22.14697725,-0.1795943826,0.003512475174,0.08781187981
22.15697725,-0.1860084683,0.02428189293,0.08552113175
22.16697725,-0.1945605874,0.02428189293,0.08674286306
22.17697725,-0.2125810981,-0.01282817032,0.08781187981
22.18697725,-0.2333505303,-0.02886338346,0.07681630552
22.19697725,-0.2513710558,-0.05482515693,0.06322455406
22.20697725,-0.2437352389,-0.0841466859,0.0594066456
22.21697725,-0.2251038402,-0.1070541367,0.05314527452
22.22697725,-0.1896736622,-0.09315694869,0.03726277873
22.23697725,-0.1505782902,-0.07422012836,0.01771509275
22.24697725,-0.0968221426,-0.05390885845,-0.009010262787
22.25697725,-0.04657847434,-0.04948008433,-0.02748893574
22.26697725,0.01328631863,-0.01802052557,-0.05054909736
22.27697725,0.05833763257,0.02290744707,-0.06261368841
22.28697725,0.09224065393,0.06627888232,-0.06368270516
22.29697725,0.1153008118,0.0849102661,-0.06246097013
22.30697725,0.1579086632,0.112246491,-0.05742133409
22.31697725,0.1919644028,0.149509266,-0.05726861581
22.32697725,0.2089159191,0.1704314053,-0.05604688451
22.33697725,0.2029599845,0.1543961912,-0.04749477282
22.34697725,0.1895209402,0.1493565589,-0.03894266114
22.35697725,0.165086329,0.1354593635,-0.03054326214
22.36697725,0.1408044398,0.1058324054,-0.02565634064
22.37697725,0.1130100712,0.06612616032,-0.01618792862
22.38697725,0.1130100712,0.06612616032,-0.01618792862
22.39697725,0.05238169432,-0.0007635815418,-0.01023199316
22.40697725,-0.001069014193,-0.04550946131,0.001832595794
22.41697725,-0.06383541971,-0.03039054573,0.01053742506
22.42697725,-0.1044579595,-0.02351831272,0.01679879427
22.43697725,-0.1168279797,-0.02229658142,0.01802052557
22.44697725,-0.1194241568,-0.002748893574,0.02046398632
22.45697725,-0.1246165112,0.01924225502,0.02794708498
22.46697725,-0.1357648075,0.02764165215,0.03176499158
22.47697725,-0.1371392459,0.03985895589,0.03176499158
22.48697725,-0.1383609772,0.0423024185,0.03054326214
22.49697725,-0.1249219403,0.04978551716,0.03054326214
22.50697725,-0.1052215397,0.03909537569,0.01832595654
22.51697725,-0.1001819,0.03054326214,0.01572977938
22.52697725,-0.09025534242,0.022143865,0.01695151068
22.53697725,-0.07070764899,0.02840523422,0.01206458826
22.54697725,-0.05238169432,0.04459316283,0.007177666761
22.55697725,-0.02901609987,0.03878994286,-0.0001527163113
22.56697725,-0.01053742506,0.02794708498,-0.002748893574
22.57697725,0.005650503561,0.007330383174,-0.006414085161
22.58697725,0.01572977938,-0.01588249579,-0.009010262787
22.59697725,0.02443460934,-0.02672535367,-0.009162978269
22.60697725,0.0270307865,-0.03039054573,-0.007941247895
22.61697725,0.02458732575,-0.04276056588,-0.0006108652451
22.62697725,0.0282525178,-0.04276056588,-0.0006108652451
22.63697725,0.03940080851,-0.03894266114,0.001832595794
22.64697725,0.03313944116,-0.03527746722,0.004276056774
22.65697725,0.02199114859,-0.02565634064,0.009162978269
22.66697725,0.003359758761,-0.01114829071,0.01298088674
22.67697725,-0.01267545391,0.002138028387,0.01542434748
22.68697725,-0.01649336144,0.01069014147,0.01924225502
22.69697725,-0.02504547499,0.01053742506,0.01679879427
22.70697725,-0.0300851129,0.02153299935,0.01679879427
22.71697725,-0.0361937657,0.02382374369,0.01679879427
22.72697725,-0.04489859566,0.03604105115,0.01450804994
22.73697725,-0.05238169432,0.04092797264,0.01206458826
22.74697725,-0.05375614017,0.04825835302,0.0109955743
22.75697725,-0.05986479297,0.04459316283,0.006108652335
22.76697725,-0.04886921868,0.05574145541,-0.00122173049
22.77697725,-0.03436116874,0.06933320314,-0.00244346098
22.78697725,-0.02458732575,0.08048149943,-0.00244346098
22.79697725,-0.01588249579,0.07452555746,0.00122173049
22.80697725,-0.0171042271,0.07452555746,0.00122173049
22.81697725,-0.01114829071,0.08307767659,-0.00122173049
22.82697725,-0.007330383174,0.07834346592,-0.004886921961
22.83697725,-0.002290744567,0.05757404864,-0.007483099122
22.84697725,0.006414085161,0.04780020565,-0.008704829961
22.85697725,0.0140499007,0.03069597855,-0.0125227375
22.86697725,0.02153299935,0.01863138936,-0.01374446787
22.87697725,0.02412917651,0.005039638374,-0.01145372353
22.88697725,0.02672535367,-0.01328631863,-0.006566801574
22.89697725,0.0232128799,-0.02443460934,-0.004276056774
22.90697725,0.02199114859,-0.0232128799,-0.003054326167
22.91697725,0.0232128799,-0.03054326214,-0.003054326167
22.92697725,0.022143865,-0.03909537569,0.001832595794
22.93697725,0.01114829071,-0.03802636266,0.005497787148
22.94697725,0.002290744567,-0.02336559631,0.009162978269
22.95697725,0.002290744567,-0.01237002108,0.01053742506
22.96697725,0.003359758761,-0.002596177394,0.009315694682
22.97697725,0.0006108652451,0.02794708498,0.01191187184
22.98697725,-0.01175915636,0.03161227703,0.007177666761
22.99697725,-0.02031126991,0.02535090782,0.004581489135
23.00697725,-0.02122756653,0.003359758761,0.002138028387
23.01697725,-0.03100141138,-0.004123340361,-0.001527163084
23.02697725,-0.03970624134,0.004276056774,0.0009162978968
23.03697725,-0.04352414981,0.0201585535,0.003512475174
23.04697725,-0.03863722831,0.0190895386,0.002138028387
23.05697725,-0.03359758854,0.01298088674,0.004581489135
23.06697725,-0.07803803682,0.03451388702,0.01328631863
23.07697725,-0.1346957833,0.04245513305,0.0109955743
23.08697725,-0.1837177277,0.0430659987,0.01481348183
23.09697725,-0.1999056488,0.05894849449,0.0125227375
23.10697725,-0.1768454909,0.08124507964,0.005192354787
23.11697725,-0.1072068512,0.1151480973,-0.004428773187
23.12697725,-0.0545197241,0.1169806942,-0.008246680722
23.13697725,0.01206458826,0.1030835137,-0.01084285788
23.14697725,0.1235474944,0.1153008118,-0.01954768784
23.15697725,0.2277000248,0.133779496,-0.03298672289
23.16697725,0.2915354371,0.1331686229,-0.0270307865
23.17697725,0.2503020465,0.0959058404,-0.02596177347
23.18697725,0.1518000066,0.1182024255,-0.03298672289
23.23388387,0.0963639915,0.02565634064,-0.02611448988
23.24388387,0.08994990587,0.05253441259,-0.02107485011
23.25388387,0.08979719132,0.06719517708,-0.01725694351
23.26388387,0.09208793938,0.07819075137,-0.009926560335
23.27388387,0.09575312585,0.08063421398,-0.007483099122
23.28388387,0.09575312585,0.07452555746,-0.006261368748
23.29388387,0.08842274547,0.07696902007,-0.005039638374
23.30388387,0.08246681094,0.06215553731,-0.003817907767
23.31388387,0.07895433158,0.04123340547,-0.003970623948
23.32388387,0.07803803682,0.0155770639,-0.009010262787
23.33388387,0.07223481685,-0.0201585535,-0.006719517522
23.34388387,0.07009678334,-0.04963280261,-0.006872233935
23.35388387,0.07147123665,-0.06185010448,-0.005803219974
23.36388387,0.0716239512,-0.06673702598,-0.003359758761
23.37388387,0.06918048859,-0.06918048859,0.0003054326226
23.38388387,0.06918048859,-0.07177666575,0.006414085161
23.39388387,0.07773260027,-0.0728456825,0.007635815535
23.40388387,0.08277224004,-0.07773260027,0.007635815535
23.41388387,0.09025534242,-0.0960585624,0.008704829961
23.42388387,0.1065959856,-0.1264491081,0.01221730467
23.43388387,0.1240056455,-0.149661988,0.01206458826
23.44388387,0.1449277848,-0.1518000066,0.007024950348
23.45388387,0.1620320082,-0.1380555481,0.004734205548
23.46388387,0.169209674,-0.1207986027,0.002290744567
23.47388387,0.1763873398,-0.1035416573,0.00244346098
23.48388387,0.1860084683,-0.08994990587,0.0
23.49388387,0.1921171248,-0.09117163718,-0.00244346098
23.50388387,0.2057088763,-0.1020144969,-0.002596177394
23.51388387,0.224492982,-0.1311833113,-0.0003054326226
23.52388387,0.2444988191,-0.1666134894,0.004428773187
23.53388387,0.2620611787,-0.1959350258,0.01145372353
23.54388387,0.2808452845,-0.2373211533,0.01618792862
23.55388387,0.3045163155,-0.2629774809,0.0270307865
23.56388387,0.3303253949,-0.2590068579,0.03420845419
23.57388387,0.3570507467,-0.2428189367,0.04046982154
23.58388387,0.3791945875,-0.2364048511,0.03924809024
23.59388387,0.4060726762,-0.2238821089,0.03680463135
23.60388387,0.4283692539,-0.2406809032,0.03176499158
23.61388387,0.4569272101,-0.2710714638,0.03283400834
23.62388387,0.4853324294,-0.2977968156,0.037415497
23.63388387,0.5178610086,-0.3526219726,0.05054909736
23.64388387,0.5529857874,-0.4074471295,0.06597344577
23.65388387,0.5829181671,-0.4550946057,0.08277224004
23.66388387,0.6162103415,-0.4657847583,0.102319926
23.67388387,0.6420193911,-0.4668537676,0.1107193232
23.68388387,0.6629415154,-0.4787656367,0.1058324054
23.69388387,0.68539083,-0.5006040931,0.08613199741
23.70388387,0.7396050692,-0.5218316317,0.06383541971
23.71388387,0.810923636,-0.5345070958,0.04780020565
23.72388387,0.9376781583,-0.5612324476,0.03161227703
23.73388387,1.086423874,-0.5841398835,0.04337143153
23.74388387,1.221730471,-0.601244092,0.08582656831
23.75388387,1.309847832,-0.5784893632,0.1322523206
23.76388387,1.41155684,-0.5456553698,0.1687515229
23.77388387,1.494176388,-0.5816964507,0.1843285859
23.78388387,1.610698938,-0.6893614531,0.1615738571
23.79388387,1.805106759,-0.8400924206,0.1067487001
23.80388387,2.056783199,-0.9610437751,0.08246681094
23.81388387,2.438115835,-1.016785145,0.07177666575
23.82388387,2.672840834,-0.9388998747,-0.005192354787
23.83388387,2.569757462,-0.9500481486,-0.1905899495
23.84388387,2.364506721,-1.049924612,-0.2787072659
23.85388387,2.199420214,-1.221883178,-0.3294090927
23.86388387,2.131767035,-1.330311775,-0.3677408695
23.87388387,2.095267773,-1.364062071,-0.3287982047
23.88388387,2.045329571,-1.393078208,-0.2762638032
23.89388387,2.06243372,-1.38574779,-0.2457205504
23.90388387,2.171015024,-1.320690632,-0.2577851415
23.91388387,2.276236534,-0.9561568499,-0.3439171314
23.92388387,2.280512571,-0.6702718735,-0.3863722682
23.93388387,2.524400711,-0.6178901792,-0.2692388594
23.94388387,2.660776377,-0.3834706545,-0.05955936015
23.95388387,2.718044996,-0.2347249687,-0.01481348183
23.96388387,2.698497295,-0.1324050426,0.05650503561
23.97388387,2.39657712,-0.2535090744,0.06979135424
23.98388387,2.10473609,-0.507781744,0.01771509275
23.99388387,1.849089146,-0.9472993016,-0.141720742
24.00388387,1.64826715,-1.011440158,-0.2588541508
24.01388387,1.558775425,-0.7970264554,-0.4053090811
24.02388387,1.58534801,-0.6479753256,-0.4754058719
24.03388387,1.617112994,-0.7542658448,-0.4857905805
24.04388387,1.51677835,-1.009607553,-0.421038866
24.05388387,1.400866747,-1.181871533,-0.3094032407
24.06388387,1.330617189,-1.259145975,-0.2145664245
24.07388387,1.253190041,-1.256855249,-0.1362229437
24.08388387,1.201571941,-1.240361929,-0.1067487001
24.09388387,1.110553026,-1.238529325,-0.165239051
24.10388387,0.9940304756,-1.244485259,-0.228463605
24.11388387,0.8909469843,-1.247844934,-0.2600758672
24.12388387,0.8568912148,-1.286176801,-0.2761110961
24.13388387,0.7814493775,-1.349401355,-0.3006984293
24.14388387,0.7089090943,-1.342681766,-0.3225368559
24.15388387,0.6708827615,-1.344208956,-0.334754169
24.16388387,0.5543602109,-1.349248648,-0.3419318199
24.17388387,0.4163046777,-1.300532103,-0.3327688277
24.18388387,0.2782491148,-1.253037333,-0.3225368559
24.19388387,0.1560760736,-1.202793717,-0.3391829133
24.20388387,0.05131268129,-1.166905284,-0.3888157308
24.21388387,-0.1211040318,-1.229671717,-0.4865541756
24.22388387,-0.2477058619,-1.344667077,-0.5662720799
24.23388387,-0.1061378345,-1.503797531,-0.751822412
24.24388387,0.06811147183,-1.499979615,-0.872926414
24.25388387,0.3171917796,-1.493565559,-1.088103771
24.26388387,0.5410739183,-1.33474052,-1.418581843
24.27388387,0.7316638231,-1.149495721,-1.7292068
24.28388387,0.7867944241,-0.9114109278,-1.867109656
24.29388387,0.6696610451,-0.6539312601,-1.882686734
24.30388387,0.5707008839,-0.5652030706,-1.746463776
24.31388387,0.6038402915,-0.6643159389,-1.474781394
24.32388387,0.7615962625,-0.8190175891,-1.125519156
24.33388387,0.9361509681,-0.9289733171,-0.8579602242
24.34388387,1.150717378,-1.110400319,-0.6540839672
24.35388387,1.350470304,-1.314123869,-0.6507241726
24.36388387,1.431562662,-1.429577351,-0.6832527518
24.37388387,1.449430466,-1.484402537,-0.7031059265
24.38388387,1.549917817,-1.584889889,-0.7159340382
24.39388387,1.698510766,-1.704619408,-0.7302893996
24.40388387,1.802357912,-1.539838552,-0.6209445
24.41388387,1.948660135,-1.437213182,-0.4754058719
24.42388387,2.10779047,-1.729817629,-0.4466952085
24.43388387,2.321898699,-2.104888916,-0.4893030524
24.44388387,2.502562284,-2.125658274,-0.5801692605
24.45388387,2.469575405,-2.046551228,-0.7628179789
24.46388387,2.26508832,-1.768149495,-0.9695958495
24.47388387,1.969429493,-1.010982037,-1.244637966
24.48388387,1.85504508,-0.3167336285,-1.075886369
24.49388387,1.857335806,0.2845104933,-0.7455610037
24.50388387,1.862833619,0.6023131609,-0.3397938013
24.51388387,1.67972672,0.3013092875,0.06918048859
24.52388387,1.301601171,-1.027017236,0.5363397002
24.53388387,1.131322384,-3.068986893,0.9749409556
24.54388387,1.190881848,-4.702593327,1.206611633
24.55388387,0.5864306092,-5.117828846,1.248150468
24.56388387,-1.748601794,-5.149136066,1.133460522
24.57388387,-3.054326296,-4.125173092,0.2415972054
24.58388387,-0.2119702399,-0.1702786833,-1.5512923
24.59388387,2.107943296,0.9213374853,-3.196352482
24.60388387,4.18106699,-1.826334357,-4.743062973
24.61388387,4.610658169,-2.892141581,-5.778632641
24.62388387,4.672813892,-2.706743956,-5.273599625
24.63388387,3.521638155,-0.8727737069,-2.25989604
24.64388387,2.10213995,0.6511823535,0.3755294085
24.65388387,-0.1815796942,0.3480404615,2.721710205
24.66388387,-2.25271821,-1.203099132,3.48116827
24.67388387,-3.075248241,-2.722168207,2.97262311
24.68388387,-2.826778889,-3.59616375,2.119091511
24.69388387,-1.714698792,-3.640756845,0.8900306821
24.70388387,-0.0956004113,-2.562579632,-0.3765984178
24.71388387,1.658041,-1.09024179,-1.702328682
24.72388387,2.826320887,0.3605632186,-2.986978292
24.73388387,4.430300236,2.500118732,-4.223369598
24.74388387,4.628678799,5.7199893,-4.154036522
24.75388387,3.838677168,4.975650311,-4.152967453
24.76388387,2.312277555,2.907565832,-3.238502026
24.77388387,1.472643375,1.559080839,-2.738966942
24.78388387,0.9714284539,0.8043568134,-2.494315624
24.79388387,0.8547531962,0.7279986739,-2.006234169
24.80388387,0.8275696635,0.6678284407,-1.402088404
24.81388387,0.830165863,0.6742424965,-0.9845620394
24.82388387,0.8565858006,0.5264131427,-0.5874996781
24.83388387,0.6968445182,0.3078760803,-0.6530149579
24.84388387,0.4060726762,-0.04566217586,-0.70448035
24.85388387,0.01435533352,-0.1556179225,-0.6666067243
24.86388387,-0.2687807083,-0.07452555746,-0.605825603
24.87388387,-0.6151412725,0.05314527452,-0.4459316432
24.88388387,-0.8816312551,0.1676825136,-0.3923282027
24.89388387,-0.9537133574,0.2496911734,-0.5138903856
24.90388387,-0.8703302741,0.3709479272,-0.551153183
24.91388387,-0.7403686643,0.4918992519,-0.6569855809
24.92388387,-0.6394231915,0.4621195495,-0.625526011
24.93388387,-0.5691736937,0.2302961946,-0.4682282209
24.94388387,-0.5189300179,0.0155770639,-0.314442873
24.95388387,-0.5141957998,-0.08124507964,-0.3234531581
24.96388387,-0.5856670737,-0.0479529202,-0.2693915665
24.97388387,-0.8260425329,0.1463022232,-0.4169155359
24.98388387,-1.022893906,0.4057672322,-0.5067127347
24.99388387,-1.168890595,0.6090326309,-0.5309945941
25.00388387,-1.321454287,0.7499898076,-0.6068946123
25.01388387,-1.479057431,0.6667594314,-0.7194465399
25.02388387,-1.680642962,0.5740606189,-0.7843509912
25.03388387,-1.794111252,0.5103778839,-0.7881689072
25.04388387,-1.845729351,0.4013384581,-0.6957755089
25.05388387,-1.784795523,0.3434589803,-0.5155702829
25.06388387,-1.705383062,0.3914119005,-0.3958406746
25.07388387,-1.631621122,0.4967861474,-0.4637994468
25.08388387,-1.569923639,0.6811147332,-0.6227771044
25.09388387,-1.522887111,0.9601274729,-0.8874344826
25.10388387,-1.538769603,1.280220866,-1.160491228
25.11388387,-1.567632914,1.549306989,-1.320079803
25.12388387,-1.561524272,1.67560339,-1.298699498
25.13388387,-1.566869378,1.609629869,-1.131780624
25.14388387,-1.743256688,1.359327912,-0.8055785298
25.15388387,-2.008677721,1.185994864,-0.3666718602
25.16388387,-2.198198557,1.135903955,0.102319926
25.17388387,-2.382374525,1.05465889,0.4732678533
25.18388387,-2.523789644,0.9569203854,0.3533855379
25.19388387,-2.581516504,0.8324565887,0.1244637966
25.20388387,-2.573117018,0.7159340382,-0.07147123665
25.21388387,-2.487443209,0.7455610037,-0.1557706445
25.22388387,-2.304336309,0.9526443481,-0.2183843255
25.23388387,-2.09694767,1.070388675,-0.2620611787
25.24388387,-1.913688064,1.032209516,-0.2832887471
25.25388387,-1.775174379,0.7336491346,-0.1288925707
25.26388387,-1.692707539,0.275347501,0.2286163121
25.27388387,-1.805565,0.2822197378,0.5242751241
25.28388387,-2.012953758,0.2904664278,0.818864882
25.29388387,-2.047314882,-0.1569923609,0.9630290866
25.30388387,-1.800219893,-0.624915123,0.9662361145
25.31388387,-1.256244421,-0.8753699064,0.7735081315
25.32388387,-0.4595233798,-0.7690793276,0.456469059
25.33388387,0.3149010241,-1.007011414,-0.1931861341
25.34388387,0.9092729092,-1.173319459,-0.8310821652
25.35388387,1.584889889,-1.015105367,-1.477224827
25.36388387,2.05204916,-0.6233879924,-1.767691255
25.37388387,2.141693592,-0.3952298164,-1.617723942
25.38388387,2.040595293,-0.3291036487,-1.144608736
25.39388387,1.784490108,-0.429132849,-0.1925752759
25.40388387,1.464854836,-0.4792237878,0.2228130996
25.41388387,1.191950798,-0.3228422701,0.4560109079
25.42388387,1.000902653,-0.3616322279,0.6319400668
25.43388387,0.8894197941,-0.5998696685,0.7188356519
25.44388387,0.7444919944,-1.050230026,0.7238753438
25.45388387,0.5479460955,-1.272890449,0.6913467646
25.46388387,0.3593414724,-0.9735664725,0.7092145681
25.47388387,0.2596177161,-0.6165157557,0.6806566119
25.48388387,0.1829541475,-0.4569272101,0.4973970354
25.49388387,0.1469130963,-0.5270239711,0.4751004577
25.50388387,0.08811730891,-0.6540839672,0.5013676286
25.51388387,0.03680463135,-0.6745479703,0.5416847467
25.52388387,0.0003054326226,-0.5991060734,0.5568036437
25.53388387,-0.05024366826,-0.4645630121,0.5367978215
25.54388387,-0.06994406879,-0.3492622077,0.4703662395
25.55388387,-0.07422012836,-0.2997821271,0.3827070892
25.56388387,-0.07773260027,-0.3251330256,0.2982549667
25.57388387,-0.09529497474,-0.4056145251,0.2050980031
25.58388387,-0.114079088,-0.4889976382,0.1522581577
25.59388387,-0.1580613852,-0.5114469528,0.1398881376
25.60388387,-0.200821951,-0.412792176,0.1869247705
25.61388387,-0.1841758788,-0.1392772794,0.181121543
25.62388387,-0.0726929605,0.3439171314,0.1663080603
25.63388387,0.09468411654,0.7562511563,0.1939497143
25.64388387,0.2390010208,0.8093964458,0.2012801021
25.65388387,0.2719877362,0.7076873779,0.2434297949
25.66388387,0.1545489132,0.5568036437,0.2452623993
25.67388387,-0.0606283769,0.4668537676,0.1243110746
25.68388387,-0.2054034323,0.334143281,-0.1215621829
25.69388387,-0.1805106848,0.2912299931,-0.2658790946
25.70388387,0.004886921961,0.2858849466,-0.2722931802
25.71388387,0.2365575731,0.3275764883,-0.248164013
25.72388387,0.441044718,0.3714060783,-0.2383901626
25.73388387,0.5316054821,0.4042400718,-0.2115120888
25.74388387,0.5172501206,0.3695734739,-0.1812742651
25.75388387,0.4386012554,0.2666426897,-0.1449277848
25.76388387,0.3590360582,0.1418734491,-0.1223257631
25.77388387,0.3219259977,0.04474587739,-0.1398881376
25.78388387,0.3097086847,-0.07055493444,-0.1685988009
25.79388387,0.3014619946,-0.2212859392,-0.1950187236
25.80388387,0.2657263875,-0.2044871449,-0.204639852
25.81388387,0.2136501223,-0.1569923609,-0.2310597748
25.82388387,0.1591303945,-0.1244637966,-0.2443460971
25.83388387,0.125990957,-0.1174388453,-0.2539672256
25.84388387,0.08765916526,-0.09086620808,-0.2587014437
25.85388387,0.07345654815,-0.02962696366,-0.2680171132
25.86388387,0.0545197241,0.01786780916,-0.2469422817
25.87388387,0.02351831272,0.0491746515,-0.2064724565
25.88388387,-0.02092213556,0.07024950534,-0.1366810948
25.89388387,-0.0601702258,0.07681630552,-0.06582073122
25.90388387,-0.07834346592,0.05436700583,-0.02076941915
25.91388387,-0.07956519723,0.05894849449,0.009773843922
25.92388387,-0.07498370856,0.09193521738,0.04046982154
25.93388387,-0.07391469181,0.1004873365,0.06001751125
25.94388387,-0.07498370856,0.08811730891,0.07101308554
25.95388387,-0.08597928286,0.08185594529,0.08445212245
25.96388387,-0.1079704314,0.07040221989,0.1003346145
25.97388387,-0.12996158,0.06291911751,0.1027780771
25.98388387,-0.1371392459,0.05543602258,0.09285151958
25.99388387,-0.145538643,0.03329215571,0.08796459436
26.00388387,-0.1528690308,0.02092213556,0.09147707373
26.01388387,-0.1514945775,0.01725694351,0.09514226019
26.02388387,-0.1272126883,0.03344487399,0.09162978828
26.03388387,-0.0956004113,0.06688974798,0.09529497474
26.04388387,-0.07620543987,0.08796459436,0.1088867337
26.05388387,-0.07131851465,0.08918632567,0.1174388453
26.06388387,-0.07254024595,0.09162978828,0.1223257631
26.07388387,-0.06520986557,0.1003346145,0.1027780771
26.08388387,-0.03573561832,0.08979719132,0.07101308554
26.09388387,-0.01695151068,0.05696318299,0.05604688451
26.10388387,-0.006719517522,0.01924225502,0.04245513305
26.11388387,0.0007635815418,0.009468411095,0.03145955876
26.12388387,0.007024950348,0.004734205548,0.02641992271
26.13388387,0.008399397135,-0.01114829071,0.02031126991
26.14388387,0.007483099122,-0.04184427112,0.01649336144
26.15388387,0.008857546374,-0.05772676691,0.01267545391
26.16388387,0.01007927675,-0.06383541971,0.00167987938
26.17388387,0.02611448988,-0.05986479297,-0.006872233935
26.18388387,0.03588833287,-0.06826419383,-0.009315694682
26.19388387,0.03237585723,-0.07574728876,-0.01191187184
26.20388387,0.02504547499,-0.07574728876,-0.01435533352
26.21388387,0.02000583708,-0.07574728876,-0.02031126991
26.22388387,0.01756237634,-0.07574728876,-0.02764165215
26.23388387,0.01511891466,-0.07330382615,-0.03375030309
26.24388387,0.007635815535,-0.05497787148,-0.03604105115
26.25388387,-0.006108652335,-0.03802636266,-0.04092797264
26.26388387,-0.01511891466,-0.006261368748,-0.03940080851
26.27388387,-0.02153299935,0.01832595654,-0.03940080851
26.28388387,-0.02901609987,0.02916881628,-0.03924809024
26.29388387,-0.02916881628,0.04520402849,-0.04398229718
26.30388387,-0.02306016348,0.05757404864,-0.04642575979
26.31388387,-0.02076941915,0.06490442902,-0.04886921868
26.32388387,-0.01985312067,0.09193521738,-0.04627304152
26.33388387,-0.02138028294,0.1200350225,-0.04489859566
26.34388387,-0.02153299935,0.133474052,-0.03756821156
26.35388387,-0.02275473066,0.1346957833,-0.03252857551
26.36388387,-0.02138028294,0.129808858,-0.02657263726
26.37388387,-0.02153299935,0.1359175146,-0.02764165215
26.38388387,-0.02489275858,0.106443271,-0.02306016348
26.39388387,-0.0293215327,0.06826419383,-0.0171042271
26.40388387,-0.0232128799,0.07086037099,-0.0171042271
26.41388387,-0.009926560335,0.08811730891,-0.01939497143
26.42388387,-0.0001527163113,0.09193521738,-0.009621127509
26.43388387,-0.0,0.07834346592,0.0
26.44388387,-0.007177666761,0.06719517708,0.003665191587
26.45388387,-0.009621127509,0.05375614017,0.001069014193
26.46388387,-0.004581489135,0.04764748737,-0.0001527163113
26.47388387,0.0004581489484,0.03298672289,-0.001374446787
26.48388387,0.004276056774,0.02565634064,-0.003970623948
26.49388387,0.001832595794,0.01588249579,-0.008857546374
26.50388387,0.004276056774,0.01588249579,-0.01007927675
26.51388387,0.01053742506,0.0160352122,-0.008857546374
26.52388387,0.01282817032,0.02458732575,0.003359758761
26.53388387,0.01267545391,0.04169155285,0.01206458826
26.54388387,0.01007927675,0.05146539584,0.01450804994
26.55388387,0.005497787148,0.03176499158,0.01802052557
26.56388387,-0.002901609987,0.002138028387,0.0190895386
26.57388387,-0.008704829961,-0.01740965992,0.01542434748
26.58388387,-0.002596177394,-0.02840523422,0.009162978269
26.59388387,0.003665191587,-0.02962696366,0.01038470957
26.60388387,-0.0,-0.02840523422,0.01771509275
26.61388387,-0.009926560335,-0.02733621933,0.0201585535
26.62388387,-0.01954768784,-0.03726277873,0.0201585535
26.63388387,-0.02687807009,-0.03970624134,0.01649336144
26.64388387,-0.03069597855,-0.03848451003,0.01160643995
26.65388387,-0.0270307865,-0.02993239649,0.005650503561
26.66388387,-0.02351831272,-0.01389718428,0.001985311974
26.67388387,-0.02260201424,0.007024950348,-0.0003054326226
26.68388387,-0.02275473066,0.02901609987,0.004734205548
26.69388387,-0.02550362423,0.04734205827,0.01206458826
26.70388387,-0.03039054573,0.05467243865,0.0109955743
26.71388387,-0.03649919853,0.05345070735,0.008552113548
26.72388387,-0.04276056588,0.05207626149,0.003665191587
26.73388387,-0.05131268129,0.05085453019,-0.00122173049
26.74388387,-0.04993823543,0.0361937657,-0.009926560335
26.75388387,-0.03375030309,0.02046398632,-0.0160352122
26.76388387,-0.01649336144,0.01206458826,-0.01985312067
26.77388387,-0.004276056774,0.0232128799,-0.02351831272
26.78388387,0.0006108652451,0.01466076635,-0.01985312067
26.79388387,0.004276056774,0.02092213556,-0.01496619824
26.80388387,0.0006108652451,0.02443460934,-0.008857546374
26.81388387,-0.005650503561,0.0293215327,-0.005192354787
26.82388387,-0.01298088674,0.02428189293,-0.003970623948
26.83388387,-0.01420261711,0.03039054573,-0.008704829961
26.84388387,-0.01175915636,0.03054326214,-0.01114829071
26.85388387,-0.004581489135,0.04031710699,-0.0160352122
26.86388387,0.0004581489484,0.04169155285,-0.01114829071
26.87388387,0.002748893574,0.04413501546,-0.007483099122
26.88388387,0.005192354787,0.04902193695,-0.005039638374
26.89388387,-0.0009162978968,0.05619960278,-0.001374446787
26.90388387,-0.008399397135,0.05864306539,0.0
26.91388387,-0.01328631863,0.05497787148,-0.003817907767
26.92388387,-0.005803219974,0.0415388383,-0.007483099122
26.93388387,-0.00320704258,0.03176499158,-0.01237002108
26.94388387,-0.001985311974,0.03176499158,-0.01237002108
26.95388387,-0.0007635815418,0.04169155285,-0.01237002108
26.96388387,0.006566801574,0.03802636266,-0.007483099122
26.97388387,0.006566801574,0.03191770986,-0.003970623948
26.98388387,-0.0006108652451,0.02687807009,0.003359758761
26.99388387,-0.01053742506,0.02428189293,0.003359758761
27.00388387,-0.006872233935,0.02687807009,-0.003970623948
27.01388387,0.0006108652451,0.01832595654,-0.007635815535
27.02388387,0.001832595794,0.02565634064,-0.008857546374
27.03388387,0.0003054326226,0.04291328415,-0.008704829961
27.04388387,0.002748893574,0.05024366826,-0.002596177394
27.05388387,0.006566801574,0.04169155285,0.001069014193
27.06388387,0.005345070735,0.03176499158,0.005803219974
27.07388387,-0.003054326167,0.01939497143,0.007024950348
27.08388387,-0.01160643995,0.01206458826,0.005803219974
27.09388387,-0.0201585535,0.009468411095,0.003359758761
27.10388387,-0.01756237634,0.005803219974,-0.005192354787
27.11388387,-0.007788531948,0.007177666761,-0.01007927675
27.12388387,-0.0006108652451,0.01466076635,-0.01007927675
27.13388387,-0.003054326167,0.01832595654,-0.002748893574
27.14388387,-0.009162978269,0.01939497143,0.007024950348
27.15388387,-0.01542434748,0.02412917651,0.01191187184
27.16388387,-0.02153299935,0.03145955876,0.01572977938
27.17388387,-0.02764165215,0.02153299935,0.01191187184
27.18388387,-0.0313068442,0.01786780916,0.004581489135
27.19388387,-0.02748893574,0.01313360315,-0.002748893574
27.20388387,-0.01878410578,0.0009162978968,-0.008857546374
27.21388387,-0.01130100712,-0.007483099122,-0.009010262787
27.22388387,-0.003970623948,-0.003817907767,-0.005345070735
27.23388387,-0.0003054326226,-0.003817907767,0.001985311974
27.24388387,-0.004123340361,0.003512475174,0.01053742506
27.25388387,-0.01145372353,0.008246680722,0.0155770639
27.26388387,-0.01511891466,0.005803219974,0.01069014147
27.27388387,-0.009010262787,0.003512475174,-0.0003054326226
27.28388387,-0.00167987938,0.003512475174,-0.006414085161
27.29388387,0.009315694682,0.007330383174,-0.01007927675
27.30388387,0.004276056774,0.0171042271,-0.007635815535
27.31388387,-0.007941247895,0.02306016348,-0.001527163084
27.32388387,-0.004123340361,0.01206458826,0.002138028387
27.33388387,0.0009162978968,-0.0001527163113,0.005650503561
27.34388387,-0.0003054326226,-0.01114829071,0.004428773187
27.35388387,-0.002596177394,-0.022143865,-0.0004581489484
27.36388387,-0.0001527163113,-0.02580905706,-0.006719517522
27.37388387,-0.001374446787,-0.01970040426,-0.009010262787
27.38388387,-0.0003054326226,-0.008704829961,-0.005345070735
27.39388387,0.00320704258,0.00244346098,-0.00167987938
27.40388387,0.0007635815418,0.008399397135,0.004581489135
27.41388387,-0.01023199316,0.009468411095,0.01313360315
27.42388387,-0.01893682219,0.01053742506,0.01924225502
27.43388387,-0.02244929783,0.0007635815418,0.01924225502
27.44388387,-0.02107485011,-0.02000583708,0.005650503561
27.45388387,-0.0160352122,-0.02351831272,-0.002901609987
27.46388387,-0.008857546374,-0.0160352122,-0.01023199316
27.47388387,0.0009162978968,-0.009926560335,-0.01023199316
27.48388387,0.0009162978968,-0.001374446787,-0.005345070735
27.49388387,-0.006566801574,0.008399397135,0.003359758761
27.50388387,-0.01267545391,0.008246680722,0.008246680722
27.51388387,-0.01756237634,0.0009162978968,0.005803219974
27.52388387,-0.0125227375,-0.01007927675,0.008093964309
27.53388387,-0.01756237634,-0.002748893574,0.006872233935
27.54388387,-0.02260201424,0.009468411095,0.007024950348
27.55388387,-0.02153299935,0.02290744707,0.002138028387
27.56388387,-0.09804387391,0.06627888232,-0.003512475174
27.57388387,-0.1594358236,0.06307183951,0.009926560335
27.58388387,-0.1175915599,0.05864306539,0.01114829071
27.59388387,-0.08475755155,0.07987063378,0.002596177394
27.60388387,-0.0430659987,0.09254608303,-0.004734205548
27.61388387,-0.01847867295,0.08307767659,-0.009621127509
27.62388387,-0.002290744567,0.06856962293,-0.01343903504
27.63388387,0.02244929783,0.0479529202,-0.01359175146
27.64388387,0.07910704613,0.03023782931,-0.01618792862
27.65388387,0.1232420653,0.03069597855,-0.01389718428
27.66388387,0.1305724531,0.03817907721,-0.005345070735
27.67388387,0.07559457421,0.01786780916,-0.00167987938
27.72957121,0.1744020283,0.07803803682,-0.02962696366
27.73957121,0.1646281779,0.06688974798,-0.02229658142
27.74957121,0.1548543423,0.06307183951,-0.02351831272
27.75957121,0.1366810948,0.04688390717,-0.01863138936
27.76957121,0.1255328059,0.0430659987,-0.01863138936
27.77957121,0.1096503139,0.03802636266,-0.01740965992
27.78957121,0.09132435173,0.03039054573,-0.01740965992
27.79957121,0.0731511116,0.01664607786,-0.01389718428
27.80957121,0.0731511116,0.008093964309,-0.01145372353
27.81957121,0.08445212245,-0.01511891466,-0.007941247895
27.82957121,0.08109235764,-0.03726277873,0.0004581489484
27.83957121,0.07498370856,-0.03726277873,0.009010262787
27.84957121,0.08353582025,-0.04337143153,0.01389718428
27.85957121,0.09101892263,-0.05314527452,0.01863138936
27.86957121,0.07406741381,-0.06933320314,0.02840523422
27.87957121,0.06169738993,-0.06215553731,0.03084869497
27.88957121,0.0716239512,-0.06566801667,0.02229658142
27.89957121,0.09132435173,-0.07024950534,0.01496619824
27.90957121,0.09865473956,-0.07757988572,0.01359175146
27.91957121,0.09376781434,-0.0726929605,0.01496619824
27.92957121,0.1009454802,-0.06398813426,0.01374446787
27.93957121,0.1156062484,-0.054061573,0.01374446787
27.94957121,0.1229366288,-0.04413501546,0.01374446787
27.95957121,0.1154535338,-0.04428773001,0.01618792862
27.96957121,0.1079704314,-0.02962696366,0.009010262787
27.97957121,0.1151480973,-0.0160352122,-0.0006108652451
27.98957121,0.1226311997,-0.01588249579,-0.009315694682
27.99957121,0.129808858,-0.009621127509,-0.01160643995
28.00957121,0.1235474944,0.003817907767,-0.009162978269
28.01957121,0.1296561509,0.0160352122,-0.001832595794
28.02957121,0.1333213449,0.01725694351,-0.003054326167
28.03957121,0.1284344196,0.01481348183,-0.003054326167
28.04957121,0.116217114,0.008552113548,-0.004276056774
28.05957121,0.106443271,-0.002596177394,-0.01282817032
28.06957121,0.1017090604,-0.01847867295,-0.02138028294
28.07957121,0.1079704314,-0.0282525178,-0.02031126991
28.08957121,0.1215621829,-0.03298672289,-0.01175915636
28.09957121,0.1423316002,-0.02794708498,-0.00320704258
28.10957121,0.1582140923,-0.01802052557,0.005345070735
28.11957121,0.1667662114,-0.02046398632,0.01267545391
28.12957121,0.1715004146,-0.004428773187,0.01756237634
28.13957121,0.1715004146,0.004123340361,0.02138028294
28.14957121,0.1814269722,-0.001832595794,0.01511891466
28.15957121,0.1913535446,-0.0140499007,0.01145372353
28.16957121,0.1963931769,-0.02611448988,0.007635815535
28.17957121,0.2075414658,-0.03833179548,0.001527163084
28.18957121,0.2151772827,-0.05650503561,-0.001069014193
28.19957121,0.2275473028,-0.07116580009,0.0
28.20957121,0.2362521291,-0.07590000331,-0.00244346098
28.21957121,0.2448042482,-0.07590000331,-0.003665191587
28.22957121,0.2498438805,-0.08933904022,0.001069014193
28.23957121,0.2487748712,-0.1101084575,0.007177666761
28.24957121,0.2466368377,-0.1383609772,0.01313360315
28.25957121,0.2542726696,-0.1530217379,0.01298088674
28.26957121,0.2777909636,-0.1797471046,0.01527163107
28.27957121,0.2965750694,-0.2151772827,0.02962696366
28.28957121,0.3167336285,-0.2506074607,0.04413501546
28.29957121,0.3329215646,-0.2689334154,0.05497787148
28.30957121,0.3623957932,-0.2747366428,0.06704246253
28.31957121,0.4103487432,-0.2840523422,0.07788532227
28.32957121,0.464715749,-0.3055853248,0.07895433158
28.33957121,0.5079344511,-0.3332269788,0.07391469181
28.34957121,0.5650503635,-0.3950771093,0.06612616032
28.35957121,0.6298020482,-0.4813618064,0.0606283769
28.36957121,0.6809620261,-0.5494732857,0.0479529202
28.37957121,0.708450973,-0.5931501389,0.03054326214
28.38957121,0.7344127297,-0.6198754907,0.02794708498
28.39957121,0.7779368758,-0.6609562039,0.02275473066
28.40957121,0.8527678847,-0.6553056836,0.0251981914
28.41957121,0.9555459619,-0.6284276247,0.03481931984
28.42957121,1.057102323,-0.5942191482,0.04092797264
28.43957121,1.100779176,-0.4259257913,0.05161811411
28.44957121,1.224479437,-0.5166392922,0.08139779419
28.45957121,1.439809442,-0.5572618246,0.1101084575
28.46957121,1.601383209,-0.5065600276,0.116217114
28.47957121,1.832290292,-0.5245805383,0.08521570265
28.48957121,2.154979944,-0.6126978397,0.03649919853
28.49957121,2.588388681,-0.6154467463,0.0601702258
28.50957121,2.861292839,-0.5409211516,0.01496619824
28.51957121,2.753322363,-0.5546656251,-0.1545489132
28.52957121,2.380236387,-0.8068002462,-0.3176499307
28.53957121,2.139860868,-1.059240341,-0.3833179474
28.54957121,2.10519433,-1.151328325,-0.4216497242
28.55957121,2.124742031,-1.135445833,-0.389732033
28.56957121,2.109470367,-0.9621127844,-0.2667953968
28.57957121,2.060753822,-0.8836165667,-0.1514945775
28.58957121,2.006997824,-0.783434689,0.03344487399
28.59957121,1.998751044,-0.6937901974,0.1890627891
28.60957121,2.014328241,-0.6582072973,0.2160935849
28.61957121,2.036930084,-0.700509727,0.1669189334
28.62957121,2.062586546,-0.8075638413,0.06368270516
28.63957121,2.198045969,-0.9700540304,0.0004581489484
28.64957121,2.423607826,-1.038776398,0.02764165215
28.65957121,2.543031931,-1.184773088,0.0719293803
28.66957121,2.348776817,-1.384373307,0.08704829961
28.67957121,2.055561543,-1.517694712,0.08918632567
28.68957121,1.878716111,-1.522123456,0.08827003092
28.69957121,1.772272825,-1.54411459,0.08353582025
28.70957121,1.775785327,-1.531439185,0.02244929783
28.71957121,1.857335806,-1.363145828,-0.102472648
28.72957121,1.97935617,-1.078940749,-0.2562579811
28.73957121,2.088548183,-0.8600982428,-0.3627012372
28.74957121,2.207667112,-0.6388123035,-0.4581489265
28.75957121,2.272113323,-0.5771149397,-0.3895792961
28.76957121,2.146885872,-0.6681338549,-0.1626428664
28.77957121,1.901012659,-0.6371324658,-0.03634648025
28.78957121,1.595885396,-0.4523457289,0.07864890248
28.79957121,1.434922457,-0.3329215646,0.08445212245
28.80957121,1.328021049,-0.4401284158,-0.006261368748
28.81957121,1.20111382,-0.5230533481,-0.1249219403
28.82957121,1.13254416,-0.5502368808,-0.2214386463
28.83957121,1.060309291,-0.6889032722,-0.3342960179
28.84957121,1.000444531,-0.9428704977,-0.4271475375
28.85957121,0.9321803451,-1.215316415,-0.5114469528
28.86957121,0.8593347073,-1.295645237,-0.5532912016
28.87957121,0.8081747293,-1.456608176,-0.5772676468
28.88957121,0.7602217793,-1.442405581,-0.5942191482
28.89957121,0.8888089061,-1.65086329,-0.7542658448
28.90957121,0.884685576,-1.620014668,-0.8138252497
28.91957121,1.000902653,-1.802052498,-0.9201157689
28.92957121,1.013883591,-2.109775782,-1.108567715
28.93957121,0.8845328689,-2.204001904,-1.390787482
28.94957121,0.8223773241,-2.040137291,-1.668120265
28.95957121,0.9049968719,-1.854281425,-1.852907062
28.96957121,1.086576581,-1.859473825,-2.079079866
28.97957121,1.291216373,-1.831374049,-2.322204113
28.98957121,1.496619821,-1.534340739,-2.428342104
28.99957121,1.640325904,-1.31458199,-2.418873549
29.00957121,1.71118629,-1.276250243,-2.332130671
29.01957121,1.733635545,-1.287551165,-2.023338318
29.02957121,1.801136136,-1.357495308,-1.426828504
29.03957121,1.929723263,-1.508378983,-0.7186829448
29.04957121,2.017229795,-1.75654304,-0.460134238
29.05957121,2.092060804,-1.963626385,-0.3246748745
29.06957121,2.068237066,-1.803579688,-0.2638937831
29.07957121,1.935984731,-1.613447785,-0.3358231783
29.08957121,1.817018628,-1.865277052,-0.4834998548
29.09957121,1.661553502,-2.133446932,-0.6140722632
29.10957121,1.589624047,-2.179109097,-0.4824308157
29.11957121,1.661858916,-2.365422964,-0.1307251602
29.12957121,1.852448821,-2.819143057,0.2498438805
29.13957121,2.095267773,-3.122437716,0.3796527386
29.14957121,2.472171545,-3.024699211,0.09392052889
29.15957121,2.94116354,-2.480876446,-0.4240931869
29.16957121,3.278666496,-1.591609359,-0.6921103001
29.17957121,3.097850323,-0.5401576161,-0.7594582438
29.18957121,2.28570509,0.18875736,-0.7504479289
29.19957121,1.17377758,-0.3908010423,-0.3830125034
29.20957121,0.6331618428,-2.006844997,0.3356704414
29.21957121,0.7790058851,-3.429550171,0.7367035151
29.22957121,1.228755474,-4.686710835,1.073442936
29.23957121,0.9416487813,-5.401422977,0.9175195694
29.24957121,-0.5273294449,-5.168836117,0.2608394623
29.25957121,-1.914604425,-4.577671528,-0.9983065128
29.26957121,-1.408349872,-3.749490976,-1.623374343
29.27957121,0.6236934066,-1.619556427,-2.075720072
29.28957121,2.468964577,-0.7357872128,-2.545475483
29.29957121,3.826765299,-0.5258022547,-2.989727259
29.30957121,4.71221447,-1.206917048,-2.629927635
29.31957121,4.711297989,-0.8061894178,-1.290910959
29.32957121,3.3677001,-0.9402743578,-0.1406517178
29.33957121,1.458288074,-1.457829952,0.2565633953
29.34957121,-0.1576032341,-0.9964739084,0.2948952019
29.35957121,-0.8820894361,-0.204792574,0.228310883
29.36957121,-1.098030329,0.5697845817,0.0545197241
29.37957121,-1.004873276,1.237307549,-0.3142901659
29.38957121,-1.793042183,2.090075493,-1.116508961
29.39957121,-0.5830708742,1.192256212,-1.933999419
29.40957121,0.610407114,1.047939301,-2.278680086
29.41957121,1.317789078,1.498299718,-2.24706769
29.42957121,1.694540143,0.7087563872,-2.378861904
29.43957121,1.752267003,0.1350012124,-2.495537281
29.44957121,1.631315589,0.1800525337,-2.683072805
29.45957121,1.500285029,0.4970915914,-2.642144918
29.46957121,1.41720736,0.924239099,-2.445599079
29.47957121,1.31045866,1.03404212,-2.345875263
29.48957121,1.198670268,0.9204211831,-2.413528681
29.49957121,1.056033254,0.7026477456,-2.567008495
29.50957121,0.9753990769,0.6638578176,-2.569452047
29.51957121,0.9309586287,0.6927211881,-2.561968803
29.52957121,0.9653198123,0.6867652535,-2.526691437
29.53957121,1.039234519,0.6687447429,-2.450027704
29.54957121,1.035111189,0.606436491,-2.484541655
29.55957121,0.9127854109,0.4470006526,-2.512030602
29.56957121,0.7250970602,0.2115120888,-2.428647518
29.57957121,0.563065052,0.1007927656,-2.229963541
29.58957121,0.3228422701,-0.03283400834,-1.843285918
29.59957121,-0.08323039114,0.09101892263,-1.345125318
29.60957121,-0.6440047026,0.07971791178,-0.8558222055
29.61957121,-1.159574986,-0.1266018152,-0.5080871582
29.62957121,-1.786628127,-0.4732678533,-0.04382958263
29.63957121,-2.227061987,-0.7073819637,0.3744603992
29.64957121,-2.199878454,-0.9373727441,0.5855143666
29.65957121,-1.670410991,-0.8575021029,0.4899139404
29.66957121,-1.252273798,-0.4815145433,0.2945897579
29.67957121,-1.256855249,-0.2955060601,0.1392772794
29.68957121,-1.524566889,-0.3032945991,-0.108123146
29.69957121,-1.939344406,0.1235474944,-0.3089450896
29.70957121,-2.153300047,0.4796819389,-0.412792176
29.71957121,-2.298227787,0.9382890463,-0.4809036553
29.72957121,-2.37290597,1.247997642,-0.5438227654
29.73957121,-2.362368584,1.519221902,-0.590095818
29.74957121,-2.300060272,1.769065738,-0.6424775124
29.75957121,-2.162157536,2.180941582,-0.7773260474
29.76957121,-1.917353272,2.692541361,-0.8042041063
29.77957121,-1.800525308,3.260798693,-0.6829473376
29.78957121,-2.065946341,3.730554104,-0.5823072791
29.79957121,-2.467437506,3.846160412,-0.5652030706
29.80957121,-3.030655146,3.480710268,-0.5734497309
29.81957121,-3.493690968,2.58899951,-0.5531384945
29.82957121,-3.637244463,1.338558435,-0.3837760985
29.83957121,-3.433826208,0.3755294085,-0.08888089657
29.84957121,-2.749199152,-0.7938193679,0.3272710443
29.85957121,-1.877341628,-1.571145415,0.7634288669
29.86957121,-1.269377947,-1.680642962,1.164767265
29.87957121,-1.128726244,-1.838246226,1.343140006
29.88957121,-1.331075311,-1.751503348,1.224326611
29.89957121,-1.866956949,-1.167821646,0.7997753024
29.90957121,-2.496911764,-0.503811121,0.2684752643
29.91957121,-3.063489199,0.07544185966,-0.2852740586
29.92957121,-3.344792604,0.6155994534,-0.7544185519
29.93957121,-3.353192091,1.482569933,-1.250288486
29.94957121,-2.958114862,1.954463363,-1.338711143
29.95957121,-2.425593138,1.893834949,-0.8407033086
29.96957121,-2.122909546,1.542129278,-0.2435825169
29.97957121,-2.019825935,1.129184365,0.3472768962
29.98957121,-2.309223413,0.8869763613,0.7774787545
29.99957121,-2.6972754,0.5874996781,1.176831841
30.00957121,-3.088382006,0.1974621862,1.287856698
30.01957121,-3.279124737,0.003359758761,1.200350165
30.02957121,-3.187036753,-0.4586070776,0.9217956662
30.03957121,-2.403449297,-0.8480336666,0.4204280078
30.04957121,-0.4425718784,-1.47707212,-0.5007568002
30.05957121,1.661095262,-1.471421719,-1.506546378
30.06957121,3.190243721,-1.225701094,-2.297769547
30.07957121,3.165809155,-1.028697014,-2.496911764
30.08957121,2.948035717,-0.5175555944,-2.254550934
30.09957121,2.988199949,-0.008093964309,-1.851379871
30.10957121,3.006067753,0.3106249869,-1.169806957
30.11957121,2.834872961,0.2724458873,-0.5958990455
30.12957121,2.505311012,0.1059851199,-0.4082106948
30.13957121,2.158186913,-0.1284344196,-0.1841758788
30.14957121,1.861153722,-0.3489567637,0.0849102661
30.15957121,1.3486377,-0.7319692969,0.4853324294
30.16957121,0.6962336898,-1.00258255,0.8817839622
30.17957121,-0.005650503561,-1.140332699,1.087340117
30.18957121,-0.5494732857,-1.152702689,1.121090412
30.19957121,-1.133918643,-0.9166033268,1.155146122
30.20957121,-1.504561067,-0.476169467,1.258229733
30.21957121,-1.65391767,-0.0613919571,1.310764074
30.22957121,-1.623679876,0.1922698319,1.187522054
30.23957121,-1.468520045,0.1388191283,0.956309557
30.24957121,-1.032667756,0.003970623948,0.5154175758
30.25957121,-0.4999932051,-0.1182024255,0.1634064466
30.26957121,-0.0415388383,-0.1689042449,0.05375614017
30.27957121,0.1605048478,-0.1244637966,-0.0282525178
30.28957121,0.2128865421,-0.09804387391,-0.2490803003
30.29957121,0.009010262787,0.01114829071,-0.4679227769
30.30957121,-0.3743076921,0.2576324046,-0.5745187402
30.31957121,-0.7428121567,0.4984660447,-0.5372560024
30.32957121,-0.8593347073,0.6059783101,-0.4583016634
30.33957121,-0.7506006956,0.6666067243,-0.3532328308
30.34957121,-0.4747950137,0.5893322229,-0.2331978083
30.35957121,-0.2553416789,0.409432441,-0.06734789163
30.36957121,-0.2211332172,0.3156646192,0.09315694869
30.37957121,-0.3240640163,0.3136793077,0.2448042482
30.38957121,-0.4915938079,0.3637702465,0.1672243625
30.39957121,-0.5650503635,0.4309654236,-0.1569923609
30.40957121,-0.4117231667,0.5497786999,-0.2872593701
30.41957121,0.04886921868,0.7608326674,-0.2686280012
30.42957121,0.6285803318,1.085812926,-0.236099422
30.43957121,1.073290229,1.392772794,-0.3011565804
30.44957121,1.236085773,1.559080839,-0.3616322279
30.45957121,1.163851023,1.536326051,-0.3604104817
30.46957121,0.8713992834,1.325730324,-0.3353650272
30.47957121,0.4297437072,0.9637926221,-0.3048217595
30.48957121,-0.022143865,0.8579602242,-0.2301434875
30.49957121,-0.2860376537,0.8570439219,-0.1637118906
30.50957121,-0.4593706727,0.7677049041,-0.08949175477
30.51957121,-0.4631885588,0.6740897894,-0.01191187184
30.52957121,-0.2884811163,0.5357288122,0.07620543987
30.53957121,-0.04612032697,0.4914411008,0.1340849251
30.54957121,0.1276708394,0.6598871946,0.1689042449
30.55957121,0.3037527502,0.9450085163,0.1737911552
30.56957121,0.4514294267,0.7987062931,0.1020144969
30.57957121,0.5045747161,0.5395467281,0.09315694869
30.58957121,0.4653266072,0.3049744666,0.07605272532
30.59957121,0.3097086847,0.04734205827,0.01145372353
30.60957121,0.06520986557,-0.1597412676,-0.04657847434
30.61957121,-0.1715004146,-0.3019201458,-0.08475755155
30.62957121,-0.3058907688,-0.365755558,-0.1091921628
30.63957121,-0.3880521357,-0.3764457107,-0.1262963861
30.64957121,-0.3898847401,-0.3139847219,-0.1125519201
30.65957121,-0.3422372639,-0.1776090711,-0.07528914511
30.66957121,-0.2336559594,-0.2246456891,0.01588249579
30.67957121,-0.1519527286,-0.3944662213,0.06612616032
30.68957121,-0.1223257631,-0.5146539807,0.1227839142
30.69957121,-0.1837177277,-0.6343835592,0.1514945775
30.70957121,-0.3026837409,-0.755793035,0.1437060535
30.71957121,-0.4106541574,-0.8794932365,0.1395827085
30.72957121,-0.4857905805,-1.081536889,0.1631010175
30.73957121,-0.4705189466,-1.354899168,0.1860084683
30.74957121,-0.3914119005,-1.626428723,0.2150245607
30.75957121,-0.2893974185,-1.751808763,0.2654209435
30.76957121,-0.212275669,-1.726763368,0.3130684495
30.77957121,-0.123852931,-1.609477162,0.3512475193
30.78957121,-0.06200282276,-1.318247199,0.3662137091
30.79957121,0.05971207842,-0.7732026577,0.2541199327
30.80957121,0.1487456858,-0.5025894046,0.04184427112
30.81957121,0.1835650057,-0.3307835162,-0.1368338168
30.82957121,0.1579086632,-0.2315179259,-0.1814269722
30.83957121,0.0963639915,-0.2110539377,-0.2397646159
30.84957121,0.06230825558,-0.2539672256,-0.2924517393
30.85957121,0.03252857551,-0.3364340365,-0.2939788997
30.86957121,0.02153299935,-0.3309362531,-0.2231185287
30.87957121,0.02092213556,-0.2750420868,-0.1117883399
30.88957121,0.02794708498,-0.2373211533,-0.06032294407
30.89957121,0.03527746722,-0.2263255715,-0.02977968007
30.90957121,0.03649919853,-0.2290744632,0.01420261711
