Time (s),Acceleration x (m/s^2),Acceleration y (m/s^2),Acceleration z (m/s^2)
12.29075718,-1.329213023,0.4402793646,10.77009487
12.30075718,-1.256830096,0.3230310678,11.20020485
12.31075718,-1.089930773,0.104685992,10.93161011
12.32075718,-1.095912814,-0.06400800496,10.38425159
12.33075718,-1.16769743,-0.3302095234,10.06181908
12.34075718,-1.364507079,-0.5198407173,9.757930756
12.35075718,-1.752144337,-0.3756731451,9.585049629
12.36075718,-2.029113531,-0.2847459018,9.560523033
12.37075718,-2.163111687,-0.2703889608,9.546165466
12.38075718,-2.06261301,-0.2243271172,9.833903313
12.39075718,-1.937588096,-0.06759724021,10.02233791
12.40075718,-1.694118381,0.02871387079,9.994820595
12.41075718,-1.6181463,-0.07956135273,9.697511673
12.42075718,-1.465005636,-0.1561316848,9.726225853
12.43075718,-1.584646821,-0.2231307179,9.720842361
12.44075718,-1.771286964,-0.409172684,9.561120987
12.45075718,-1.861616015,-0.561715126,9.525827408
12.46075718,-2.048256159,-0.8009973764,9.447462082
12.47075718,-2.019542217,-0.8871390224,9.494720459
12.48075718,-1.976471543,-0.8877372146,9.600004196
12.49075718,-1.923829436,-0.8590233326,9.586245537
12.50075718,-1.746760488,-0.8063812256,9.592227936
12.51075718,-1.689332843,-0.7926225066,9.731011391
12.52075718,-1.718046665,-0.717248559,9.851250648
12.53075718,-1.622333765,-0.7028916478,9.866206169
12.54075718,-1.64626193,-0.7974081635,9.697511673
12.55075718,-1.670190215,-0.8638089895,9.586843491
12.56075718,-1.536192179,-0.8075776696,9.808179855
12.57075718,-1.406381488,-0.8045865893,10.0767746
12.58075718,-1.554736495,-0.760917604,10.00977516
12.59075718,-1.823330879,-0.7112665176,9.649655342
12.60075718,-1.905285001,-0.6903293133,9.434301376
12.61075718,-1.847857237,-0.656829834,9.391230583
12.62075718,-1.857428551,-0.6233302951,9.387042999
12.63075718,-1.800000787,-0.7052844763,9.486943245
12.64075718,-1.655833244,-0.7393822074,9.655039787
12.65075718,-1.679761529,-0.8356932998,9.735796928
12.66075718,-1.421934843,-0.7345965505,9.655637741
12.67075718,-1.369292736,-0.7196413875,9.565308571
12.68075718,-1.455434322,-0.7914260626,9.540781975
12.69075718,-1.670190215,-0.8871390224,9.553344727
12.70075718,-1.593619823,-0.9164510965,9.658628464
12.71075718,-1.837687731,-0.6101697683,9.607182503
12.72075718,-1.952543259,-0.6717849374,9.458230019
12.73075718,-1.613360643,-0.7579265833,9.540184021
12.74075718,-1.679761529,-1.040279627,9.489934921
12.75075718,-2.010569334,-1.26341033,9.195617676
12.76075718,-2.091326952,-1.259821177,9.34815979
12.77075718,-2.239681959,-1.093519926,9.535398483
12.78075718,-2.378465652,-1.212562919,9.381061554
12.79075718,-2.450250387,-1.226321578,9.29432106
12.80075718,-2.344367981,-1.202991605,9.46720314
12.81075718,-2.005185366,-1.29451704,9.59282589
12.82075718,-2.221137524,-1.223928809,8.983852386
12.83075718,-1.962712765,-0.9194421172,9.317651749
12.84075718,-1.799402595,-0.8596215248,9.701699257
12.85075718,-1.708475351,-0.9170492887,9.71605587
12.86075718,-1.737189293,-0.8410771489,9.768698692
12.87075718,-1.631905079,-0.8596215248,9.71186924
12.88075718,-1.875972986,-0.9212366939,9.604789734
12.89075718,-1.971685886,-0.9631111026,9.379266739
12.90075718,-1.995614052,-0.9487541914,9.412766457
12.91075718,-2.009970903,-0.9158528447,9.51386261
12.92075718,-1.956730723,-0.9367900491,9.767501831
12.93075718,-2.039283037,-0.9433703423,9.312267303
12.94075718,-2.029113531,-0.8817551732,9.360722542
12.95075718,-1.914258122,-0.6873382926,9.71186924
12.96075718,-1.794616938,-0.6687939167,9.784252167
12.97075718,-1.756331801,-0.7166503668,9.817750931
12.98075718,-1.708475351,-0.7453642488,9.817750931
12.99075718,-1.708475351,-0.8303094506,9.616155624
13.00075718,-1.727617979,-0.8925228715,9.558130264
13.01075718,-1.765903115,-0.9080761671,9.744172096
13.02075718,-1.852044702,-0.9074779749,9.677172661
13.03075718,-2.06261301,-1.036690354,9.641879082
13.04075718,-1.919641972,-0.9672985673,9.317052841
13.05075718,-1.915454507,-0.7776673436,8.806185722
13.06075718,-1.823929071,-0.87517488,9.155537605
13.07075718,-1.895115495,-0.9164510965,9.566504478
13.08075718,-2.028515339,-0.9798609018,9.79083252
13.09075718,-2.047657967,-1.007976532,9.699904442
13.10075718,-2.024327993,-0.9457631707,9.628120422
13.11075718,-1.966900229,-0.9260223508,9.528220177
13.12075718,-1.895115495,-0.9391828775,9.403793335
13.13075718,-1.852044702,-0.9589236975,9.470791817
13.14075718,-1.832902193,-0.9541380405,9.509077072
13.15075718,-1.789831281,-0.9355936646,9.567103386
13.16075718,-1.780260086,-0.9302098155,9.543174744
13.17075718,-1.818545222,-0.9068797827,9.605388641
13.18075718,-1.871187329,-0.993021369,9.590433121
13.19075718,-1.871187329,-0.9834501147,9.614361763
13.20075718,-1.861616015,-0.9744769931,9.652647018
13.21075718,-1.895115495,-0.993021369,9.585647583
13.22075718,-1.856830359,-0.9499505758,9.561718941
13.23075718,-1.775474429,-0.9068797827,9.624530792
13.24075718,-1.765903115,-0.902692318,9.677172661
13.25075718,-1.789831281,-0.9212366939,9.614959717
13.26075718,-1.823330879,-0.9547362328,9.609575272
13.27075718,-1.847259045,-0.9355936646,9.591031075
13.28075718,-1.875972986,-0.8967102766,9.519247055
13.29075718,-1.832902193,-0.8775677085,9.514460564
13.30075718,-1.789831281,-0.8584251404,9.510273933
13.31075718,-1.813759565,-0.9349954724,9.533603668
13.32075718,-1.828116536,-0.9116654396,9.586245537
13.33075718,-1.842473388,-0.9212366939,9.614959717
13.34075718,-1.871187329,-0.926620543,9.648459435
13.35075718,-1.856830359,-0.9116654396,9.624530792
13.36075718,-1.890329838,-0.9308080077,9.600004196
13.37075718,-1.8855443,-0.8925228715,9.543174744
13.38075718,-1.938186288,-1.002592683,9.537193298
13.39075718,-2.158325911,-1.08335042,9.468997002
13.40075718,-2.019542217,-0.9876375198,9.494122505
13.41075718,-2.158325911,-0.9786644578,9.574879646
13.42075718,-2.177468538,-1.068993568,9.425926208
13.43075718,-2.081755638,-0.9355936646,9.589835167
13.44075718,-2.024327993,-0.9218349457,9.643074989
13.45075718,-2.005185366,-0.8979067206,9.652647018
13.46075718,-2.053041935,-0.9068797827,9.604789734
13.47075718,-2.000399828,-0.9158528447,9.499505997
13.48075718,-2.019542217,-0.8919246197,9.489934921
13.49075718,-2.043470621,-0.8488538265,9.432506561
13.50075718,-2.033899307,-0.7812566161,9.413962364
13.51075718,-2.019542217,-0.7770691514,9.471389771
13.52075718,-2.0769701,-0.7627122402,9.476176262
13.53075718,-2.0769701,-0.7818548083,9.461818695
13.54075718,-2.0769701,-0.7537391186,9.538389206
13.55075718,-2.096112728,-0.7585247755,9.600603104
13.56075718,-2.124826431,-0.7920243144,9.556933403
13.57075718,-2.096112728,-0.8356932998,9.633503914
13.58075718,-2.115255117,-0.8261220455,9.600004196
13.59075718,-2.096112728,-0.8781659007,9.556335449
13.60075718,-2.0769701,-0.9068797827,9.551549911
13.61075718,-2.048256159,-0.9302098155,9.474979401
13.62075718,-2.033899307,-0.9643075466,9.518050194
13.63075718,-2.005185366,-0.9732806087,9.479764938
13.64075718,-1.971685886,-1.006780148,9.465408325
13.65075718,-1.93340075,-1.025922656,9.527621269
13.66075718,-1.914258122,-1.025922656,9.508479118
13.67075718,-1.919043779,-1.05523479,9.546764374
13.68075718,-1.899901152,-1.05523479,9.561120987
13.69075718,-1.919043779,-1.083948612,9.598808289
13.70075718,-1.947757602,-1.112662554,9.565308571
13.71075718,-1.971685886,-1.088734269,9.603593826
13.72075718,-1.986042738,-1.040877819,9.574879646
13.73075718,-2.000399828,-1.026520967,9.537193298
13.74075718,-2.000399828,-0.9589236975,9.508479118
13.75075718,-1.971685886,-0.9164510965,9.533005714
13.76075718,-1.986042738,-0.8871390224,9.494720459
13.77075718,-1.971685886,-0.8679963946,9.499505997
13.78075718,-2.009970903,-0.8440681696,9.480362892
13.79075718,-1.986042738,-0.8297112584,9.485747337
13.80075718,-1.986042738,-0.8297112584,9.514460564
13.81075718,-2.000399828,-0.8494520187,9.523433685
13.82075718,-2.000399828,-0.8590233326,9.54257679
13.83075718,-1.995614052,-0.8829515576,9.556933403
13.84075718,-1.995614052,-0.8877372146,9.576076508
13.85075718,-1.990828395,-0.8685946465,9.580862045
13.86075718,-1.976471543,-0.8446664214,9.591031075
13.87075718,-1.966900229,-0.8207381964,9.586245537
13.88075718,-1.986042738,-0.8297112584,9.4809618
13.89075718,-1.966900229,-0.8488538265,9.466604233
13.90075718,-1.962114573,-0.8536394835,9.490532875
13.91075718,-1.942971945,-0.9020941257,9.561718941
13.92075718,-1.952543259,-0.9212366939,9.604789734
13.93075718,-1.957328916,-0.9218349457,9.623932838
13.94075718,-1.966900229,-0.9020941257,9.585647583
13.95075718,-1.9812572,-0.9403793216,9.57129097
13.96075718,-2.019542217,-0.950548768,9.623334885
13.97075718,-2.06261301,-0.9547362328,9.513264656
13.98075718,-2.0769701,-0.9403793216,9.513264656
13.99075718,-2.081755638,-0.9397810698,9.479764938
14.00075718,-2.0769701,-0.9014959335,9.465408325
14.01075718,-2.057827473,-0.8919246197,9.451051712
14.02075718,-2.067398787,-0.8871390224,9.475577354
14.03075718,-2.057827473,-0.9014959335,9.489336014
14.04075718,-2.0769701,-0.8775677085,9.509077072
14.05075718,-2.100898266,-0.8733802438,9.537193298
14.06075718,-2.081755638,-0.9116654396,9.541978836
14.07075718,-2.096112728,-0.8925228715,9.570692062
14.08075718,-2.096112728,-0.9068797827,9.541978836
14.09075718,-2.086541414,-0.9020941257,9.556335449
14.10075718,-2.0769701,-0.8829515576,9.556933403
14.11075718,-2.072184324,-0.9116654396,9.5754776
14.12075718,-2.053041935,-0.9020941257,9.552147865
14.13075718,-2.033899307,-0.8781659007,9.552147865
14.14075718,-2.019542217,-0.8584251404,9.489934921
14.15075718,-2.024327993,-0.8871390224,9.489934921
14.16075718,-2.01475668,-0.8877372146,9.523433685
14.17075718,-2.024327993,-0.8877372146,9.552147865
14.18075718,-2.043470621,-0.8823533654,9.499505997
14.19075718,-2.019542217,-0.8919246197,9.494720459
14.20075718,-2.024327993,-0.9595218897,9.570692062
14.21075718,-2.000399828,-0.9403793216,9.546764374
14.22075718,-2.019542217,-0.9355936646,9.522835732
14.23075718,-2.009970903,-0.9445667267,9.494122505
14.24075718,-2.005185366,-0.9355936646,9.532406807
14.25075718,-1.966900229,-0.9643075466,9.589835167
14.26075718,-1.995614052,-0.9355936646,9.57129097
14.27075718,-1.976471543,-0.9451649189,9.576076508
14.28075718,-1.928615093,-0.9014959335,9.494720459
14.29075718,-1.890329838,-0.8973084688,9.571888924
14.30075718,-1.880758643,-0.9068797827,9.547960281
14.31075718,-1.852044702,-0.9403793216,9.604789734
14.32075718,-1.856830359,-0.9355936646,9.600004196
14.33075718,-1.847259045,-0.9314061999,9.643673897
14.34075718,-1.847259045,-0.9314061999,9.653244972
14.35075718,-1.861616015,-0.902692318,9.643673897
14.36075718,-1.880758643,-0.9260223508,9.590433121
14.37075718,-1.899901152,-0.9014959335,9.499505997
14.38075718,-1.871187329,-0.9164510965,9.543174744
14.39075718,-1.8855443,-0.9020941257,9.576674461
14.40075718,-1.942971945,-0.8877372146,9.537791252
14.41075718,-1.942971945,-0.8823533654,9.509077072
14.42075718,-1.947757602,-0.8632107973,9.524032593
14.43075718,-1.966900229,-0.8727820516,9.518648148
14.44075718,-1.990828395,-0.8919246197,9.480362892
14.45075718,-1.990828395,-0.9206385016,9.518648148
14.46075718,-2.029113531,-0.9308080077,9.518050194
14.47075718,-2.01475668,-0.9164510965,9.547362328
14.48075718,-2.043470621,-0.9355936646,9.551549911
14.49075718,-2.057827473,-0.9260223508,9.561120987
14.50075718,-2.033899307,-0.9068797827,9.518648148
14.51075718,-2.033899307,-0.8871390224,9.494720459
14.52075718,-2.033899307,-0.8823533654,9.461220741
14.53075718,-2.024327993,-0.8919246197,9.480362892
14.54075718,-2.024327993,-0.8919246197,9.480362892
14.55075718,-2.024327993,-0.8919246197,9.480362892
14.56075718,-2.019542217,-0.9164510965,9.580862045
14.57075718,-2.01475668,-0.9308080077,9.561120987
14.58075718,-1.986042738,-0.8973084688,9.590433121
14.59075718,-2.009970903,-0.9254241586,9.498908043
14.60075718,-2.000399828,-0.9302098155,9.451051712
14.61075718,-1.990828395,-0.9116654396,9.54257679
14.62075718,-2.000399828,-0.8925228715,9.533005714
14.63075718,-2.009970903,-0.8919246197,9.523433685
14.64075718,-2.01475668,-0.8829515576,9.590433121
14.65075718,-2.005185366,-0.9068797827,9.585647583
14.66075718,-2.024327993,-0.9122636318,9.628718376
14.67075718,-2.01475668,-0.9403793216,9.551549911
14.68075718,-2.005185366,-0.9355936646,9.537193298
14.69075718,-1.990828395,-0.9110672474,9.494720459
14.70075718,-1.986042738,-0.8823533654,9.489934921
14.71075718,-1.952543259,-0.8536394835,9.500103951
14.72075718,-1.976471543,-0.8679963946,9.504291534
14.73075718,-1.962114573,-0.8823533654,9.504291534
14.74075718,-1.962114573,-0.8781659007,9.537791252
14.75075718,-1.990828395,-0.9164510965,9.54257679
14.76075718,-2.005185366,-0.9308080077,9.590433121
14.77075718,-2.029113531,-0.9403793216,9.585049629
14.78075718,-2.038684845,-0.9738788009,9.5754776
14.79075718,-2.024327993,-0.9690931439,9.541978836
14.80075718,-2.029113531,-0.9595218897,9.565906525
14.81075718,-2.019542217,-0.9589236975,9.484550476
14.82075718,-1.976471543,-0.9493523836,9.470193863
14.83075718,-1.990828395,-0.9589236975,9.518050194
14.84075718,-2.005185366,-0.9690931439,9.527621269
14.85075718,-2.005185366,-0.9780662656,9.513264656
14.86075718,-2.000399828,-0.9684949517,9.508479118
14.87075718,-1.995614052,-0.9355936646,9.528220177
14.88075718,-2.000399828,-0.9164510965,9.537791252
14.89075718,-2.029113531,-0.9068797827,9.552147865
14.90075718,-2.019542217,-0.8685946465,9.518648148
14.91075718,-2.024327993,-0.8781659007,9.580862045
14.92075718,-2.033899307,-0.8877372146,9.576076508
14.93075718,-2.053041935,-0.9020941257,9.527621269
14.94075718,-2.029113531,-0.8973084688,9.523433685
14.95075718,-2.019542217,-0.8494520187,9.552147865
14.96075718,-2.038684845,-0.8542376757,9.547362328
14.97075718,-2.06261301,-0.8775677085,9.489934921
14.98075718,-2.029113531,-0.8488538265,9.504291534
14.99075718,-2.024327993,-0.8536394835,9.518648148
15.00075718,-2.029113531,-0.8775677085,9.499505997
15.01075718,-2.019542217,-0.8871390224,9.509077072
15.02075718,-2.024327993,-0.9547362328,9.532406807
15.03075718,-2.043470621,-0.9643075466,9.546764374
15.04075718,-2.029113531,-0.9451649189,9.556335449
15.05075718,-1.990828395,-0.9547362328,9.565906525
15.06075718,-2.01475668,-0.9738788009,9.546764374
15.07075718,-2.024327993,-0.9780662656,9.513264656
15.08075718,-2.01475668,-0.9690931439,9.518050194
15.09075718,-2.009970903,-0.9349954724,9.508479118
15.10075718,-2.000399828,-0.9547362328,9.532406807
15.11075718,-2.009970903,-0.9637092948,9.513264656
15.12075718,-1.986042738,-0.9690931439,9.541978836
15.13075718,-1.971685886,-0.9690931439,9.570692062
15.14075718,-1.971685886,-0.9547362328,9.546764374
15.15075718,-1.947757602,-0.9355936646,9.595218658
15.16075718,-1.9812572,-0.9308080077,9.547362328
15.17075718,-1.971685886,-0.9260223508,9.537791252
15.18075718,-1.971685886,-0.9206385016,9.509077072
15.19075718,-1.9812572,-0.9206385016,9.504291534
15.20075718,-1.976471543,-0.9260223508,9.533005714
15.21075718,-1.971685886,-0.9110672474,9.523433685
15.22075718,-1.976471543,-0.8919246197,9.504291534
15.23075718,-1.990828395,-0.9302098155,9.509077072
15.24075718,-1.995614052,-0.9116654396,9.528220177
15.25075718,-2.005185366,-0.9164510965,9.556933403
15.26075718,-1.966900229,-0.8925228715,9.547362328
15.27075718,-1.957328916,-0.8925228715,9.590433121
15.28075718,-1.890329838,-0.902692318,9.696315765
15.29075718,-1.9812572,-0.9936196208,9.642477036
15.30075718,-1.957328916,-0.9547362328,9.566504478
15.31075718,-2.038684845,-1.034895778,9.34038353
15.32075718,-1.995614052,-0.9828519225,9.441479683
15.33075718,-1.947757602,-0.9547362328,9.561718941
15.34075718,-1.952543259,-0.9547362328,9.585647583
15.35075718,-1.966900229,-0.9547362328,9.580862045
15.36075718,-1.966900229,-0.9451649189,9.556933403
15.37075718,-1.962114573,-0.9164510965,9.595218658
15.38075718,-1.957328916,-0.9068797827,9.590433121
15.39075718,-1.971685886,-0.8979067206,9.628718376
15.40075718,-1.962114573,-0.8829515576,9.580862045
15.41075718,-1.986042738,-0.8781659007,9.537791252
15.42075718,-2.01475668,-0.8733802438,9.523433685
15.43075718,-2.053041935,-0.8871390224,9.489934921
15.44075718,-2.081755638,-0.8919246197,9.489336014
15.45075718,-2.053041935,-0.8632107973,9.461220741
15.46075718,-2.053041935,-0.8871390224,9.489934921
15.47075718,-2.053041935,-0.8775677085,9.466006279
15.48075718,-2.043470621,-0.9062815905,9.513264656
15.49075718,-2.033899307,-0.9302098155,9.498908043
15.50075718,-2.009970903,-0.9355936646,9.561120987
15.51075718,-2.019542217,-0.9068797827,9.57129097
15.52075718,-2.067398787,-0.9732806087,9.498908043
15.53075718,-2.019542217,-0.9684949517,9.503693581
15.54075718,-2.019542217,-0.9738788009,9.589835167
15.55075718,-2.033899307,-0.9690931439,9.537193298
15.56075718,-2.043470621,-0.9972088337,9.513264656
15.57075718,-2.033899307,-0.9780662656,9.513264656
15.58075718,-2.038684845,-0.9451649189,9.527621269
15.59075718,-2.01475668,-0.9445667267,9.489336014
15.60075718,-2.024327993,-0.9403793216,9.537193298
15.61075718,-2.01475668,-0.9451649189,9.541978836
15.62075718,-1.9812572,-0.9068797827,9.54257679
15.63075718,-2.005185366,-0.9164510965,9.537791252
15.64075718,-2.01475668,-0.9445667267,9.494122505
15.65075718,-1.962712765,-0.890130043,9.183652878
15.66075718,-1.995614052,-0.9260223508,9.580862045
15.67075718,-1.966302037,-0.9134600163,9.882357597
15.68075718,-1.990828395,-0.9314061999,9.647860527
15.69075718,-1.9812572,-0.9314061999,9.633503914
15.70075718,-1.971685886,-0.9218349457,9.686145782
15.71075718,-1.962114573,-0.926620543,9.667003632
15.72075718,-1.986042738,-0.9403793216,9.600004196
15.73075718,-2.182254314,-1.145563841,9.458827972
15.74075718,-1.866999865,-0.7178468108,9.180064201
15.75075718,-1.890329838,-0.7782655358,9.696913719
15.78640407,-2.976671457,-9.357730865,0.9900303483
15.79640407,-3.086741209,-9.256634712,0.851246655
15.80640407,-3.182454109,-9.165108681,0.7657032609
15.81640407,-3.168097258,-9.155537605,0.784845829
15.82640407,-3.077768087,-9.193822861,0.7944171429
15.83640407,-3.101696253,-9.174081802,0.6317051649
15.84640407,-3.149552822,-9.239884377,0.5210371017
15.85640407,-3.116053343,-9.187840462,0.5599204898
15.86640407,-3.073580742,-9.096315384,0.4935196638
15.87640407,-3.135195971,-9.062815666,0.5030909777
15.88640407,-3.25005126,-9.144171715,0.4157529473
15.89640407,-3.317050457,-9.187242508,0.4677968323
15.90640407,-3.317050457,-9.202198029,0.5539384484
15.91640407,-3.312264681,-9.198010445,0.6017948985
15.92640407,-3.321835995,-9.245866776,0.6065805554
15.93640407,-3.254837036,-9.221938133,0.5976074338
15.94640407,-3.216551781,-9.183652878,0.6693921089
15.95640407,-3.15433836,-9.184251785,0.756131947
15.96640407,-3.096910715,-9.260822296,0.7794619799
15.97640407,-3.034697294,-9.227322578,0.7513462901
15.98640407,-3.005983353,-9.179466248,0.7519445419
15.99640407,-2.967698336,-9.198608398,0.8093722463
16.00640407,-3.010769129,-9.313464165,0.8081758618
16.01640407,-3.087339401,-9.332606316,0.7555337548
16.02640407,-3.082553864,-9.275178909,0.745962441
16.03640407,-3.158525944,-9.356534958,0.7740781307
16.04640407,-3.211168051,-9.356534958,0.7405785918
16.05640407,-3.259024382,-9.279964447,0.7214360237
16.06640407,-3.249453068,-9.251849174,0.8075776696
16.07640407,-3.230310678,-9.218349457,0.8416753411
16.08640407,-3.187838078,-9.208179474,0.7507480979
16.09640407,-3.125624657,-9.20758152,0.679561615
16.10640407,-3.034697294,-9.202795982,0.6747759581
16.11640407,-3.015554667,-9.187840462,0.6221339107
16.12640407,-2.96291256,-9.17886734,0.6993024349
16.13640407,-2.92941308,-9.183652878,0.7088736892
16.14640407,-2.94377017,-9.193224907,0.6993024349
16.15640407,-2.991626501,-9.235696793,0.626919508
16.16640407,-3.044268608,-9.269794464,0.6311069727
16.17640407,-3.144767046,-9.317052841,0.5826523304
16.18640407,-3.16869545,-9.331410408,0.5826523304
16.19640407,-3.15433836,-9.312865257,0.6687939167
16.20640407,-3.158525944,-9.361320496,0.7405785918
16.21640407,-3.115455151,-9.376275063,0.8219345808
16.22640407,-3.048455954,-9.337990761,0.8991031051
16.23640407,-3.024527788,-9.290133476,0.8997012973
16.24640407,-2.981456995,-9.300303459,0.94277215
16.25640407,-2.986242771,-9.257232666,1.009771109
16.26640407,-3.043670416,-9.214161873,0.9667003751
16.27640407,-3.03888464,-9.204590797,0.9475577474
16.28640407,-3.105883837,-9.166305542,0.9236295223
16.29640407,-3.196810961,-9.165707588,0.8422735929
16.30640407,-3.287738323,-9.160921097,0.8464609981
16.31640407,-3.292523861,-9.180064201,0.8081758618
16.32640407,-3.316452265,-9.247062683,0.8267202377
16.33640407,-3.311666489,-9.26142025,0.7836494446
16.34640407,-3.24466753,-9.203393936,0.7555337548
16.35640407,-3.206382275,-9.20399189,0.798604548
16.36640407,-3.182454109,-9.218349457,0.87517488
16.37640407,-3.201596737,-9.199206352,0.87517488
16.38640407,-3.235096216,-9.194420815,0.8273184299
16.39640407,-3.306880951,-9.241679192,0.7310073376
16.40640407,-3.321835995,-9.212367058,0.6783652306
16.41640407,-3.384049416,-9.174081802,0.6496513486
16.42640407,-3.369692564,-9.097511292,0.6502495408
16.43640407,-3.388236761,-9.107681274,0.6885347366
16.44640407,-3.383451223,-9.122037888,0.769890666
16.45640407,-3.359523058,-9.126823425,0.745962441
16.46640407,-3.302693367,-9.136395454,0.7124629617
16.47640407,-3.278765202,-9.288937569,0.6209374666
16.48640407,-3.221337557,-9.307481766,0.5347958803
16.49640407,-3.226123095,-9.307481766,0.5108676553
16.50640407,-3.159124136,-9.327222824,0.6879364848
16.51640407,-3.192623615,-9.284749985,0.7262216806
16.52640407,-3.24466753,-9.237491608,0.851246655
16.53640407,-3.249453068,-9.223732948,0.9613165259
16.54640407,-3.306880951,-9.208778381,0.8368897438
16.55640407,-3.311666489,-9.232108116,0.7549355626
16.56640407,-3.302693367,-9.312865257,0.6059823632
16.57640407,-3.226123095,-9.355937004,0.6203392744
16.58640407,-3.125624657,-9.375079155,0.6496513486
16.59640407,-3.07298255,-9.422935486,0.6783652306
16.60640407,-3.096910715,-9.42712307,0.5724828243
16.61640407,-3.125624657,-9.340981483,0.5300102234
16.62640407,-3.149552822,-9.239884377,0.4588237405
16.63640407,-3.131008387,-9.229117393,0.2961117923
16.64640407,-3.073580742,-9.238688469,0.3152543902
16.65640407,-3.016152859,-9.27278614,0.4253242314
16.66640407,-3.025724173,-9.31525898,0.2817548811
16.67640407,-3.011367321,-9.353543282,0.3433700502
16.68640407,-2.973082066,-9.343972206,0.3391826153
16.69640407,-2.915654421,-9.445667267,0.4725824594
16.70640407,-2.910270452,-9.345169067,0.5258227587
16.71640407,-2.876770973,-9.288339615,0.5790630579
16.72640407,-2.863012314,-9.292527199,0.5024927258
16.73640407,-2.867797852,-9.348757744,0.3631108403
16.74640407,-2.848655462,-9.367302895,0.2673979402
16.75640407,-2.925225735,-9.366703987,0.162113741
16.76640407,-3.007179976,-9.346963882,0.04187439755
16.77640407,-3.025724173,-9.248259544,0.2626122832
16.78640407,-3.029911757,-9.087342262,0.613160789
16.79640407,-3.05862546,-8.997013092,0.709471941
16.80640407,-3.211168051,-8.964710236,0.8482556343
16.81640407,-3.287738323,-9.056833267,1.019342422
16.82640407,-3.306282759,-9.205786705,1.085743308
16.83640407,-3.316452265,-9.19980526,0.9182456732
16.84640407,-3.288336515,-9.183652878,0.6119644046
16.85640407,-3.283550978,-9.139386177,0.4636093974
16.86640407,-3.18843627,-9.000602722,0.4552344978
16.87640407,-3.092125177,-9.00179863,0.709471941
16.88640407,-3.081955671,-9.061020851,0.9870393276
16.89640407,-3.172284603,-8.996415138,1.283749342
16.90640407,-3.248854876,-8.995218277,1.164108157
16.91640407,-3.263810158,-9.032905579,0.9816554785
16.92640407,-3.216551781,-9.159725189,0.6891329288
16.93640407,-3.101696253,-9.255437851,0.6789634228
16.94640407,-3.029911757,-9.293723106,0.7028916478
16.95640407,-3.043670416,-9.238089561,0.9954141974
16.96640407,-3.124428272,-9.010173798,1.250249863
16.97640407,-3.081357241,-8.892327309,1.524227977
16.98640407,-2.947359324,-8.68774128,1.727019787
16.99640407,-2.740978241,-8.736195564,1.832902193
17.00640407,-2.684148788,-8.544769287,1.877767563
17.01640407,-2.650649309,-8.754141808,1.674975872
17.02640407,-2.646461725,-8.848658562,1.444666624
17.03640407,-2.325823545,-8.880961418,1.3310076
17.04640407,-2.316850424,-8.899505615,1.244866014
17.05640407,-2.474178553,-9.100502968,1.189831018
17.06640407,-2.656033039,-9.330811501,1.278963685
17.07640407,-2.813361168,-9.404391289,1.584048629
17.08640407,-2.936591625,-9.131608963,2.298904419
17.09640407,-3.007179976,-8.668000221,3.105883837
17.10640407,-3.049652576,-8.268398285,3.486940861
17.11640407,-2.863012314,-7.8341012,3.68674159
17.12640407,-2.547757864,-7.63190794,3.626920938
17.13640407,-2.638087034,-7.670791149,3.62153697
17.14640407,-2.64825654,-7.937591076,3.457030535
17.15640407,-2.365903378,-8.129016876,3.543172121
17.16640407,-2.389831543,-8.501698494,3.401995659
17.17640407,-3.096910715,-9.144769669,3.595814228
17.18640407,-3.549752474,-9.617352486,4.089334011
17.19640407,-3.530011654,-9.495318413,4.444668293
17.20640407,-3.449253798,-9.227322578,4.532604218
17.21640407,-3.086143017,-8.890532494,4.244269371
17.22640407,-2.890529871,-9.080761909,4.06660223
17.23640407,-2.565704107,-8.983254433,3.838685751
17.24640407,-2.360519648,-8.81456089,3.658625841
17.25640407,-2.398804665,-8.64167881,3.568296671
17.26640407,-2.308475733,-8.268398285,3.566502094
17.27640407,-2.383849621,-8.127222061,4.021736622
17.28640407,-2.478366137,-8.083553314,4.658825874
17.29640407,-2.654238462,-7.865208149,5.679364681
17.30640407,-2.849851847,-7.52722168,5.862415314
17.31640407,-2.980260611,-7.379465103,5.2737813
17.32640407,-2.876172781,-7.207779884,4.561916351
17.33640407,-2.752344131,-7.343572617,4.125824451
17.34640407,-2.651845694,-7.718049526,4.286741734
17.35640407,-2.584846735,-7.535596848,4.259224415
17.36640407,-2.311466694,-7.275377274,4.779065132
17.37640407,-2.18105793,-7.159923553,5.422136307
17.38640407,-2.266601324,-7.068397999,6.049654007
17.39640407,-2.787638426,-6.686144829,6.155536175
17.40640407,-3.251846075,-6.407381058,5.901896954
17.41640407,-3.347558975,-6.535397053,5.685346603
17.42640407,-3.367299557,-6.802794933,5.572884083
17.43640407,-3.224328518,-6.686144829,5.291727066
17.44640407,-2.755335331,-6.370292187,5.405984402
17.45640407,-2.415554523,-6.400202274,5.64167738
17.46640407,-2.467598438,-6.3846488,6.153741837
17.47640407,-2.496910334,-5.598606586,5.971887112
17.48640407,-2.330011129,-5.481956482,5.681159019
17.49640407,-2.261815548,-6.44985342,5.943771362
17.50640407,-2.510071039,-6.524031162,6.263213158
17.51640407,-2.629712105,-6.22193718,6.163911343
17.52640407,-2.324028969,-5.911468506,6.315257072
17.53640407,-2.132603168,-5.610570908,6.418746948
17.54640407,-2.199602127,-5.012963295,6.508477688
17.55640407,-2.309073925,-5.870790482,6.650850773
17.56640407,-2.543570518,-6.256632805,6.336194515
17.57640407,-2.475973129,-6.16809845,6.70588541
17.58640407,-2.542374134,-6.154938221,6.916453838
17.59640407,-2.843869686,-5.968895912,6.935596466
17.60640407,-3.131008387,-6.19382143,6.904489517
17.61640407,-2.844467878,-6.110671043,6.685546398
17.62640407,-2.656033039,-6.536593437,7.464410305
17.63640407,-2.674577475,-6.080760479,7.993822098
17.64640407,-2.737389088,-5.581857204,7.877171993
17.65640407,-2.824727058,-5.084748268,7.204789162
17.66640407,-2.973082066,-5.802595139,7.089335442
17.67640407,-2.838485956,-6.263811588,7.41236639
17.68640407,-2.54117775,-5.458028316,7.950153351
17.69640407,-2.450250387,-5.020142078,8.312665939
17.70640407,-2.661417007,-4.844867706,7.877171993
17.71640407,-2.973082066,-4.086342812,7.416553974
17.72640407,-3.392424345,-5.703292847,8.017151833
17.73640407,-3.889533281,-6.032904148,7.850851059
17.74640407,-3.268595695,-4.925625324,7.711469173
17.75640407,-2.785245657,-4.660620213,8.23729229
17.76640407,-2.574677229,-4.608576298,8.305487633
17.77640407,-2.426322222,-4.536791801,8.315656662
17.78640407,-2.684148788,-3.658027649,8.621937752
17.79640407,-2.555534601,-3.022733212,8.779864311
17.80640407,-2.703291416,-2.846860647,9.034101486
17.81640407,-2.947359324,-2.818146944,8.913862228
17.82640407,-3.03888464,-2.639283419,8.694320679
17.83640407,-2.913261652,-2.484946251,9.208179474
17.84640407,-2.836092949,-2.283350945,9.908679008
17.85640407,-2.78285265,-2.036292076,10.16889763
17.86640407,-2.520240545,-1.756929994,9.927821159
17.87640407,-2.663211584,-2.399402857,10.09531879
17.88640407,-2.682354212,-2.347957134,10.31127071
17.89640407,-2.539382935,-2.087737799,10.07856941
17.90640407,-2.266601324,-1.933998942,9.990034103
17.91640407,-2.223530531,-1.810170293,10.06720352
17.92640407,-2.67338109,-1.676172256,10.02831936
17.93640407,-2.309672117,-1.064806104,10.32084274
17.94640407,-2.060818434,-0.860219717,10.53380394
17.95640407,-1.955534339,-0.6687939167,10.5355978
17.96640407,-1.755135417,0.2931207716,10.54217815
17.97640407,-1.625923038,1.107876897,11.10808086
17.98640407,-1.797009826,1.118046403,11.77328587
17.99640407,-1.713261008,1.955534339,13.32562923
18.00640407,-1.984248161,2.694916487,14.40658665
18.01640407,-2.200798512,2.150549412,13.43031502
18.02640407,-1.963310957,1.095314622,12.36610699
18.03640407,-1.911865234,0.3643072546,11.40897846
18.04640407,-1.611566067,-0.5353940725,10.67617607
18.05640407,-1.50269258,-1.061216831,9.80219841
18.06640407,-1.704886079,-1.500898004,8.903095245
18.07640407,-1.795813441,-1.804786444,8.503493309
18.08640407,-1.83469677,-1.860419631,8.253443718
18.09640407,-1.797009826,-1.448255897,8.184649467
18.10640407,-1.701296926,-0.708275497,8.462815285
18.11640407,-1.524227977,0.02333002165,8.568697929
18.12640407,-1.256830096,0.3924229145,8.50469017
18.13640407,-1.353141189,1.469193101,8.568697929
18.14640407,-1.295115232,1.621735573,8.651249886
18.15640407,-1.543370605,1.403390527,9.07059288
18.16640407,-1.670788407,1.389033556,9.850652695
18.17640407,-1.774278045,0.9379864931,10.7042923
18.18640407,-1.721635938,0.6735795736,10.9806633
18.19640407,-1.645065546,0.4636093974,10.85025406
18.20640407,-1.526022673,0.3936193287,10.63011456
18.21640407,-1.469193101,0.2003988922,10.14556789
18.22640407,-1.478764415,0.1531406492,9.977472305
18.23640407,-1.526620865,0.06699903309,10.04387283
18.24640407,-1.588834286,0.04366901144,9.94277668
18.25640407,-1.641476393,0.06759724021,9.937990189
18.26640407,-1.723430514,0.107078813,9.693324089
18.27640407,-1.670788407,0.2566302419,9.531808853
18.28640407,-1.609173179,0.3481557071,9.456435204
18.29640407,-1.5224334,0.4761717021,9.663414001
18.30640407,-1.575075507,0.4223332107,9.830313683
18.31640407,-1.47457695,0.2638086975,9.925428391
18.32640407,-1.488335729,0.09092725813,10.03430176
18.33640407,-1.540977836,0.004785645287,10.06241703
18.34640407,-1.593021631,-0.07298108935,10.16710377
18.35640407,-1.760519266,-0.2733799815,10.08873844
18.36640407,-1.957328916,-0.3996013701,9.574281693
18.37640407,-2.120639086,-0.5126622319,9.252447128
18.38640407,-2.111067772,-0.5796613097,9.237491608
18.39640407,-2.09671092,-0.679561615,9.203393936
18.40640407,-2.039283037,-0.717248559,9.055039406
18.41640407,-2.067996979,-0.70348984,9.169894218
18.42640407,-2.277967215,-0.7477570772,9.32662487
18.43640407,-1.9812572,-0.8578268886,9.408578873
18.44640407,-1.918445587,-1.089930773,9.738189697
18.45640407,-1.8855443,-1.040877819,9.60419178
18.46640407,-1.861616015,-1.007976532,9.652647018
18.47640407,-1.832303882,-1.013360381,9.777072906
18.48640407,-1.784447432,-1.033101201,9.868000984
18.49640407,-1.77009058,-1.028913736,9.95414257
18.50640407,-1.799402595,-1.103689432,9.671191216
18.51640407,-1.789831281,-1.183848977,9.483952522
18.52640407,-1.789831281,-1.183848977,9.483952522
18.53640407,-1.641476393,-1.078564763,9.566504478
18.54640407,-1.478764415,-0.9637092948,9.587442398
18.55640407,-1.473978758,-1.098305583,9.62931633
18.56640407,-1.555334687,-1.02711916,9.701699257
18.57640407,-1.59840548,-0.9882357717,9.582057953
18.58640407,-1.684547186,-0.912861824,9.754341125
18.59640407,-1.794616938,-0.8452646136,9.735198975
18.60640407,-1.823330879,-0.8117650747,9.71605587
18.61640407,-1.914258122,-0.8069794178,9.682557106
18.62640407,-1.871187329,-0.7070791125,9.759725571
18.63640407,-1.780260086,-0.6777670383,9.650253296
18.64640407,-1.746760488,-0.6388836503,9.626325607
18.65640407,-1.761117458,-0.7298108935,9.625727654
18.66640407,-1.746760488,-0.6532405615,9.631111145
18.67640407,-1.862214208,-0.6765705943,9.467801094
18.68640407,-1.828714728,-0.6000002623,9.497113228
18.69640407,-1.866999865,-0.5856433511,9.477970123
18.70640407,-1.814357758,-0.5569294691,9.478569031
18.71640407,-1.819143414,-0.5084748268,9.416355133
18.72640407,-1.723430514,-0.5856433511,9.488140106
18.73640407,-1.642074585,-0.6005984545,9.583852768
18.74640407,-1.637288928,-0.6622136831,9.564710617
18.75640407,-1.64626193,-0.7058826685,9.655039787
18.76640407,-1.655833244,-0.7734799385,9.683753014
18.77640407,-1.703689694,-0.7920243144,9.616155624
18.78640407,-1.703689694,-0.7920243144,9.58265686
18.79640407,-1.857428551,-0.4510470629,9.416355133
18.80640407,-1.655833244,-0.9320043921,9.806983948
18.81640407,-1.636690736,-0.9224331379,9.826126099
18.82640407,-1.55054903,-0.888933599,9.788438797
18.83640407,-1.478764415,-0.9068797827,9.649655342
18.84640407,-1.508076429,-0.9487541914,9.452845573
18.85640407,-1.536790371,-0.9876375198,9.505488396
18.86640407,-1.545763373,-0.9254241586,9.568299294
18.87640407,-1.555334687,-0.9595218897,9.639486313
18.88640407,-1.531406522,-0.950548768,9.692128181
18.89640407,-1.569691658,-0.9990034699,9.811769485
18.90640407,-1.64626193,-1.037288666,9.811170578
18.91640407,-1.655833244,-1.022333503,9.710672379
18.92640407,-1.674975872,-1.055832982,9.686145782
18.93640407,-1.718046665,-1.022333503,9.720243454
18.94640407,-1.622333765,-0.9493523836,9.548559189
18.95640407,-1.656431437,-0.9774680734,9.380462646
18.96640407,-1.66600275,-1.020538807,9.457033157
18.97640407,-1.694716692,-0.9918249846,9.461818695
18.98640407,-1.79521513,-0.9631111026,9.389435768
18.99640407,-1.804188251,-1.087537885,9.412766457
19.00640407,-1.761117458,-0.8967102766,9.490532875
19.01640407,-1.655833244,-0.8638089895,9.597013474
19.02640407,-1.627119422,-0.8350951076,9.644869804
19.03640407,-1.560120344,-0.8015955687,9.659825325
19.04640407,-1.488335729,-0.7543373108,9.703494072
19.05640407,-1.473978758,-0.7686942816,9.746564865
19.06640407,-1.507478237,-0.8309076428,9.688538551
19.07640407,-1.517049551,-0.9068797827,9.620942116
19.08640407,-1.588834286,-0.9445667267,9.572486877
19.09640407,-1.603191137,-0.9690931439,9.591629982
19.10640407,-1.564906001,-0.9260223508,9.601201057
19.11640407,-1.540977836,-0.8829515576,9.673583984
19.12640407,-1.512263894,-0.8829515576,9.606584549
19.13640407,-1.555932879,-0.9062815905,9.530014038
19.14640407,-1.575075507,-0.9158528447,9.519845009
19.15640407,-1.622333765,-0.9308080077,9.577272415
19.16640407,-1.694118381,-0.9924231768,9.538389206
19.17640407,-1.689332843,-1.025922656,9.533603668
19.18640407,-1.770688772,-1.074377418,9.561718941
19.19640407,-1.722832322,-0.9888339639,9.744172096
19.20640407,-1.660618901,-0.917647481,9.783055305
19.21640407,-1.617548108,-0.9361918569,9.754341125
19.22640407,-1.574477315,-0.9457631707,9.735198975
19.23640407,-1.560120344,-0.9403793216,9.649057388
19.24640407,-1.569691658,-0.9445667267,9.572486877
19.25640407,-1.588834286,-0.9110672474,9.562915802
19.26640407,-1.656431437,-0.9637092948,9.500103951
19.27640407,-1.646860242,-0.7866404653,9.539586067
19.28640407,-1.612762451,-0.6484549642,9.646066666
19.29640407,-1.737787485,-0.7292127013,9.496515274
19.30640407,-1.780858278,-0.7962117195,9.46720314
19.31640407,-1.756331801,-0.8009973764,9.500701904
19.32640407,-1.751546144,-0.8452646136,9.672985077
19.33640407,-1.823330879,-0.8494520187,9.59641552
19.34640407,-1.765903115,-0.8877372146,9.610772133
19.35640407,-1.832303882,-0.8321040869,9.888339996
19.36640407,-2.081157446,-0.970289588,9.738189697
19.37640407,-1.708475351,-0.8829515576,9.56770134
19.38640407,-1.66600275,-0.7052844763,9.56411171
19.39640407,-1.460219979,-0.9445667267,9.55394268
19.40640407,-1.641476393,-0.6681957245,9.70827961
19.41640407,-1.584646821,-1.120439172,9.379864693
19.42640407,-0.9290133715,-0.5192425251,9.721440315
19.43640407,-1.430907965,-0.9517452121,9.965508461
19.44640407,-1.986042738,-1.165304661,9.602995872
19.45640407,-2.172683001,-1.398006678,9.289535522
19.46640407,-2.407179594,-1.164108157,9.337990761
19.47640407,-2.30189538,-1.101894855,9.31525898
19.48640407,-2.134397745,-1.074377418,9.555138588
19.49640407,-2.143370867,-0.9367900491,9.73340416
19.50640407,-1.923829436,-0.7920243144,9.572486877
19.51640407,-1.957328916,-0.7968099117,9.600603104
19.52640407,-1.895115495,-0.7872386575,9.586843491
19.53640407,-1.890329838,-0.7926225066,9.644271851
19.54640407,-1.880758643,-0.8398807645,9.610174179
19.55640407,-1.861616015,-0.8919246197,9.447462082
19.56640407,-1.823929071,-0.8913264275,9.433105469
19.57640407,-1.808973908,-0.8925228715,9.600603104
19.58640407,-1.780260086,-0.8979067206,9.734601021
19.59640407,-1.794616938,-0.9074779749,9.715457916
19.60640407,-1.804188251,-0.9170492887,9.667601585
19.61640407,-1.789831281,-0.9068797827,9.591031075
19.62640407,-1.756331801,-0.8919246197,9.543772697
19.63640407,-1.780260086,-0.8877372146,9.605388641
19.64640407,-1.847259045,-0.9020941257,9.547960281
19.65640407,-1.856830359,-0.8877372146,9.610174179
19.66640407,-1.899901152,-0.8255237937,9.576674461
19.67640407,-1.875972986,-0.8015955687,9.548559189
19.68640407,-1.852044702,-0.8159525394,9.572486877
19.69640407,-1.852044702,-0.8835497499,9.672387123
19.70640407,-1.852044702,-0.8835497499,9.68674469
19.71640407,-1.842473388,-0.8931210637,9.667601585
19.72640407,-1.856830359,-0.9068797827,9.576674461
19.73640407,-1.852044702,-0.9403793216,9.590433121
19.74640407,-1.847259045,-0.9074779749,9.638887405
19.75640407,-1.899901152,-0.926620543,9.671789169
19.76640407,-1.923829436,-0.8733802438,9.581459999
19.77640407,-1.995614052,-0.8739784956,9.633503914
19.78640407,-1.957328916,-0.8404789567,9.62931633
19.79640407,-1.962114573,-0.8685946465,9.580862045
19.80640407,-1.995614052,-0.8733802438,9.552147865
19.81640407,-2.019542217,-0.9158528447,9.485149384
19.82640407,-2.06261301,-0.9254241586,9.446265221
19.83640407,-2.0769701,-0.9493523836,9.45583725
19.84640407,-2.091326952,-0.9308080077,9.527621269
19.85640407,-2.119442701,-1.186241865,9.841679573
19.86640407,-2.234896421,-0.7531409264,9.480362892
19.87640407,-2.254637241,-0.760917604,9.149555206
19.88640407,-2.297708035,-0.7842476368,9.101698875
19.89640407,-2.331207514,-0.7896314859,9.130413055
19.90640407,-2.325823545,-0.8189435601,9.239884377
19.91640407,-2.330609322,-0.8494520187,9.479166985
19.92640407,-2.330011129,-0.8548358679,9.594022751
19.93640407,-2.291725874,-0.8309076428,9.637691498
19.94640407,-2.30189538,-0.8063812256,9.546764374
19.95640407,-2.30189538,-0.9014959335,9.426525116
19.96640407,-2.28215456,-0.8931210637,9.651450157
19.97640407,-2.272583246,-0.8841479421,9.766903877
19.98640407,-2.291725874,-0.8787640929,9.670592308
19.99640407,-2.330609322,-0.8632107973,9.440881729
20.00640407,-2.402393818,-0.8291130662,9.335597992
20.01640407,-2.435893536,-0.8099704385,9.292527199
20.02640407,-2.474178553,-0.7663014531,9.18245697
20.03640407,-2.446063042,-0.784845829,9.096315384
20.04640407,-2.297109842,-0.7860422134,9.360123634
20.05640407,-2.258226395,-0.8554341197,9.738189697
20.06640407,-2.406581402,-0.8219345808,9.670592308
20.07640407,-2.440679073,-0.8057830334,9.445667267
20.08640407,-2.440679073,-0.7908278704,9.34038353
20.09640407,-2.368894339,-0.7950153351,9.263813019
20.10640407,-2.354537487,-0.8626125455,9.349954605
20.11640407,-2.359323025,-0.8303094506,9.546165466
20.12640407,-2.364108801,-0.8105686903,9.464810371
20.13640407,-2.402393818,-0.8105686903,9.388239861
20.14640407,-2.373680115,-0.7968099117,9.479764938
20.15640407,-2.287538528,-0.8015955687,9.5754776
20.16640407,-2.301297188,-0.7974081635,9.60419178
20.17640407,-2.340180635,-0.8255237937,9.531808853
20.18640407,-2.325823545,-0.8871390224,9.455238342
20.19640407,-2.349751949,-0.8727820516,9.46002388
20.20640407,-2.359323025,-0.9062815905,9.468997002
20.21640407,-2.431107759,-0.8584251404,9.40199852
20.22640407,-2.388036966,-0.8392825127,9.431310654
20.23640407,-2.354537487,-0.8584251404,9.436096191
20.24640407,-2.330609322,-0.8542376757,9.531808853
20.25640407,-2.334796667,-0.8500502706,9.617950439
20.26640407,-2.392822742,-0.8542376757,9.507881165
20.27640407,-2.411965132,-0.8243274093,9.349954605
20.28640407,-2.416750908,-0.8147560954,9.316454887
20.29640407,-2.416750908,-0.8291130662,9.292527199
20.30640407,-2.402393818,-0.8291130662,9.316454887
20.31640407,-2.39760828,-0.8488538265,9.426525116
20.32640407,-2.392822742,-0.8201399446,9.464810371
20.33640407,-2.426322222,-0.8207381964,9.474381447
20.34640407,-2.411965132,-0.8159525394,9.469595909
20.35640407,-2.440679073,-0.8434699774,9.358927727
20.36640407,-2.416750908,-0.8344969153,9.373882294
20.37640407,-2.378465652,-0.8584251404,9.455238342
20.38640407,-2.378465652,-0.8446664214,9.51745224
20.39640407,-2.39222455,-0.8398807645,9.560523033
20.40640407,-2.378465652,-0.8255237937,9.51745224
20.41640407,-2.388036966,-0.8207381964,9.512666702
20.42640407,-2.392822742,-0.8153542876,9.450452805
20.43640407,-2.407179594,-0.8297112584,9.407382011
20.44640407,-2.388036966,-0.7956135273,9.31166935
20.45640407,-2.39760828,-0.7962117195,9.393025398
20.46640407,-2.378465652,-0.8153542876,9.445667267
20.47640407,-2.402393818,-0.8440681696,9.464810371
20.48640407,-2.37786746,-0.8159525394,9.541379929
20.49640407,-2.363510609,-0.8165507317,9.598808289
20.50640407,-2.340180635,-0.8159525394,9.527621269
20.51640407,-2.349751949,-0.8249256015,9.416953087
20.52640407,-2.316252232,-0.8482556343,9.373882294
20.53640407,-2.316252232,-0.8392825127,9.416953087
20.54640407,-2.330609322,-0.8632107973,9.445667267
20.55640407,-2.344966173,-0.8679963946,9.393025398
20.56640407,-2.30189538,-0.8679963946,9.464810371
20.57640407,-2.344367981,-0.9164510965,9.555138588
20.58640407,-2.339582443,-0.8829515576,9.570094109
20.59640407,-2.291725874,-0.8733802438,9.560523033
20.60640407,-2.291725874,-0.8691928387,9.608379364
20.61640407,-2.268395901,-0.8446664214,9.527621269
20.62640407,-2.321038008,-0.8530412912,9.31166935
20.63640407,-2.350350142,-0.866201818,9.15374279
20.64640407,-2.306680918,-0.8524430394,9.28295517
20.65640407,-2.273181438,-0.8440681696,9.422337532
20.66640407,-2.239681959,-0.8542376757,9.551549911
20.67640407,-2.229512453,-0.8548358679,9.594620705
20.68640407,-2.258226395,-0.8548358679,9.613762856
20.69640407,-2.287538528,-0.8973084688,9.550951958
20.70640407,-2.282752752,-0.9020941257,9.550951958
20.71640407,-2.287538528,-0.8781659007,9.536594391
20.72640407,-2.273181438,-0.8446664214,9.494122505
20.73640407,-2.277967215,-0.8338986635,9.369695663
20.74640407,-2.187039852,-0.8440681696,9.460622787
20.75640407,-2.177468538,-0.8404789567,9.60419178
20.76640407,-2.196012974,-0.8835497499,9.656833649
20.77640407,-2.229512453,-0.8548358679,9.652048111
20.78640407,-2.273181438,-0.8536394835,9.479764938
20.79640407,-2.234896421,-0.8584251404,9.436694145
20.80640407,-2.220539331,-0.8685946465,9.513264656
20.81640407,-2.201396942,-0.8542376757,9.532406807
20.82640407,-2.225325108,-0.8775677085,9.470193863
20.83640407,-2.244467735,-0.8871390224,9.46002388
20.84640407,-2.234896421,-0.8919246197,9.483952522
20.85640407,-2.234896421,-0.8823533654,9.483952522
20.86640407,-2.220539331,-0.8494520187,9.532406807
20.87640407,-2.258824587,-0.8781659007,9.531808853
20.88640407,-2.268395901,-0.8919246197,9.46002388
20.89640407,-2.234896421,-0.8679963946,9.403194427
20.90640407,-2.220539331,-0.8632107973,9.465408325
20.91640407,-2.230110645,-0.8632107973,9.484550476
20.92640407,-2.234896421,-0.8775677085,9.484550476
20.93640407,-2.234896421,-0.8638089895,9.527621269
20.94640407,-2.225325108,-0.8590233326,9.565906525
20.95640407,-2.244467735,-0.8781659007,9.522835732
20.96640407,-2.230110645,-0.8733802438,9.508479118
20.97640407,-2.234896421,-0.8823533654,9.469595909
20.98640407,-2.249253273,-0.8871390224,9.450452805
20.99640407,-2.268395901,-0.9068797827,9.498309135
21.00640407,-2.287538528,-0.8871390224,9.469595909
21.01640407,-2.282752752,-0.8775677085,9.455238342
21.02640407,-2.263610125,-0.8733802438,9.48873806
21.03640407,-2.254039049,-0.8781659007,9.51745224
21.04640407,-2.234896421,-0.8781659007,9.498908043
21.05640407,-2.239681959,-0.8590233326,9.498908043
21.06640407,-2.249253273,-0.8392825127,9.460622787
21.07640407,-2.254039049,-0.8297112584,9.45583725
21.08640407,-2.273181438,-0.8488538265,9.479764938
21.09640407,-2.277967215,-0.8781659007,9.503094673
21.10640407,-2.263610125,-0.8829515576,9.527023315
21.11640407,-2.287538528,-0.8638089895,9.546165466
21.12640407,-2.287538528,-0.8823533654,9.464810371
21.13640407,-2.244467735,-0.8775677085,9.455238342
21.14640407,-2.230110645,-0.8590233326,9.503693581
21.15640407,-2.234896421,-0.8679963946,9.484550476
21.16640407,-2.254039049,-0.8679963946,9.440881729
21.17640407,-2.258824587,-0.8775677085,9.450452805
21.18640407,-2.249253273,-0.8829515576,9.507881165
21.19640407,-2.277967215,-0.9020941257,9.498309135
21.20640407,-2.273181438,-0.8679963946,9.474381447
21.21640407,-2.254039049,-0.8823533654,9.455238342
21.22640407,-2.273181438,-0.8679963946,9.455238342
21.23640407,-2.249253273,-0.8733802438,9.48873806
21.24640407,-2.249253273,-0.8679963946,9.484550476
21.25640407,-2.254039049,-0.8877372146,9.48873806
21.26640407,-2.273181438,-0.8973084688,9.512666702
21.27640407,-2.254039049,-0.8781659007,9.51745224
21.28640407,-2.273181438,-0.8733802438,9.546165466
21.29640407,-2.297109842,-0.8638089895,9.48873806
21.30640407,-2.273181438,-0.8488538265,9.470193863
21.31640407,-2.254039049,-0.8679963946,9.46002388
21.32640407,-2.230110645,-0.8392825127,9.451051712
21.33640407,-2.225325108,-0.8434699774,9.374481201
21.34640407,-2.220539331,-0.8338986635,9.393623352
21.35640407,-2.244467735,-0.8542376757,9.537193298
21.36640407,-2.254039049,-0.8350951076,9.503693581
21.37640407,-2.297109842,-0.8967102766,9.455238342
21.38640407,-2.321038008,-0.9062815905,9.46002388
21.39640407,-2.28215456,-0.8931210637,9.608379364
21.40640407,-2.258226395,-0.8835497499,9.608379364
21.41640407,-2.263610125,-0.8542376757,9.561120987
21.42640407,-2.277369022,-0.8787640929,9.584450722
21.43640407,-2.292324066,-0.9068797827,9.527023315
21.44640407,-2.277967215,-0.9164510965,9.527023315
21.45640407,-2.263610125,-0.8871390224,9.483952522
21.46640407,-2.282752752,-0.9200403094,9.383454323
21.47640407,-2.245065928,-0.8183453679,9.139984131
21.48640407,-2.210968018,-0.7764709592,9.370293617
21.52463841,-2.551945448,-9.440283775,0.4695914388
21.53463841,-2.547159672,-9.354142189,0.4558327198
21.54463841,-2.566302299,-9.391828537,0.3690928817
21.55463841,-2.638087034,-9.401400566,0.3732803464
21.56463841,-2.6620152,-9.388239861,0.5024927258
21.57463841,-2.709871531,-9.393025398,0.5647061467
21.58463841,-2.748156786,-9.393025398,0.5024927258
21.59463841,-2.666800737,-9.297312737,0.5126622319
21.60463841,-2.719442844,-9.297312737,0.536590457
21.61463841,-2.762513638,-9.330811501,0.5120640397
21.62463841,-2.743371248,-9.373882294,0.5216353536
21.63463841,-2.729014158,-9.359525681,0.4929214716
21.64463841,-2.681157827,-9.388239861,0.4881358147
21.65463841,-2.642872572,-9.364311218,0.560518682
21.66463841,-2.671586514,-9.449854851,0.4689932466
21.67463841,-2.676372051,-9.402596474,0.4929214716
21.68463841,-2.685943365,-9.364909172,0.613160789
21.69463841,-2.709273338,-9.350552559,0.6227321029
21.70463841,-2.752344131,-9.364909172,0.6173482537
21.71463841,-2.723630428,-9.384052277,0.6412764788
21.72463841,-2.723630428,-9.412766457,0.6556333899
21.73463841,-2.666202545,-9.407979965,0.6604190469
21.74463841,-2.618346214,-9.446265221,0.6412764788
21.75463841,-2.604587555,-9.436694145,0.5934200287
21.76463841,-2.590230465,-9.436694145,0.6083751321
21.77463841,-2.604587555,-9.431310654,0.5551348329
21.78463841,-2.633301258,-9.393025398,0.5509474277
21.79463841,-2.681157827,-9.393025398,0.5264210105
21.80463841,-2.690729141,-9.402596474,0.5168496966
21.81463841,-2.709871531,-9.412167549,0.5216353536
21.82463841,-2.7577281,-9.450452805,0.4731806815
21.83463841,-2.685943365,-9.378668785,0.5599204898
21.84463841,-2.652443886,-9.378668785,0.5413761139
21.85463841,-2.618944407,-9.378668785,0.5509474277
21.86463841,-2.590230465,-9.373882294,0.5461617708
21.87463841,-2.681157827,-9.440881729,0.4977070987
21.88463841,-2.685943365,-9.440881729,0.5024927258
21.89463841,-2.705085993,-9.406784058,0.4594219327
21.90463841,-2.657229662,-9.40199852,0.4498506486
21.91463841,-2.705085993,-9.378069878,0.4689932466
21.92463841,-2.714657307,-9.383454323,0.5407779217
21.93463841,-2.657229662,-9.345767021,0.613160789
21.94463841,-2.651845694,-9.317052841,0.6562315822
21.95463841,-2.670988321,-9.374481201,0.670588553
21.96463841,-2.694916487,-9.422337532,0.6604190469
21.97463841,-2.675773859,-9.441479683,0.6460621357
21.98463841,-2.637488842,-9.518050194,0.6263213158
21.99463841,-2.652443886,-9.479764938,0.5886343718
22.00463841,-2.647658348,-9.412766457,0.5886343718
22.01463841,-2.647658348,-9.364909172,0.589232564
22.02463841,-2.705085993,-9.364909172,0.5988038778
22.03463841,-2.733201742,-9.374481201,0.6412764788
22.04463841,-2.747558594,-9.394221306,0.6747759581
22.05463841,-2.742773056,-9.399007797,0.6652047038
22.06463841,-2.747558594,-9.412766457,0.6556333899
22.07463841,-2.723630428,-9.388837814,0.6221339107
22.08463841,-2.718844652,-9.39840889,0.6221339107
22.09463841,-2.714059114,-9.393623352,0.5982056856
22.10463841,-2.676372051,-9.403194427,0.5790630579
22.11463841,-2.666202545,-9.369695663,0.670588553
22.12463841,-2.718844652,-9.393623352,0.650847733
22.13463841,-2.728415966,-9.370891571,0.7657032609
22.14463841,-2.800200701,-9.341579437,0.732203722
22.15463841,-2.795415163,-9.30807972,0.718445003
22.16463841,-2.757129908,-9.375079155,0.679561615
22.17463841,-2.733201742,-9.403793335,0.6699903607
22.18463841,-2.709273338,-9.393623352,0.6364908218
22.19463841,-2.670988321,-9.38465023,0.7040880919
22.20463841,-2.651845694,-9.38465023,0.7040880919
22.21463841,-2.632703066,-9.412766457,0.6562315822
22.22463841,-2.627917528,-9.384052277,0.6562315822
22.23463841,-2.656631231,-9.379864693,0.6993024349
22.24463841,-2.714059114,-9.346364975,0.7519445419
22.25463841,-2.752344131,-9.346963882,0.7854440212
22.26463841,-2.800200701,-9.361320496,0.7752745152
22.27463841,-2.809772015,-9.394820213,0.8087740541
22.28463841,-2.828914642,-9.394820213,0.7992027402
22.29463841,-2.83370018,-9.366106033,0.837487936
22.30463841,-2.790031195,-9.323633194,0.9242277741
22.31463841,-2.785245657,-9.328418732,0.9337990284
22.32463841,-2.742174864,-9.34815979,0.9912267923
22.33463841,-2.751745939,-9.353543282,1.063011408
22.34463841,-2.737389088,-9.37687397,1.019940615
22.35463841,-2.770888567,-9.400801659,1.019342422
22.36463841,-2.756531715,-9.343374252,1.019940615
22.37463841,-2.775674343,-9.333803177,1.024726272
22.38463841,-2.790031195,-9.343374252,1.024726272
22.39463841,-2.861815929,-9.401400566,1.091127157
22.40463841,-2.900100946,-9.382257462,1.033699393
22.41463841,-2.861815929,-9.367302895,0.9954141974
22.42463841,-2.919841766,-9.342177391,0.8279166222
22.43463841,-2.94377017,-9.352347374,0.8416753411
22.44463841,-2.981456995,-9.347561836,0.8560323119
22.45463841,-3.029313564,-9.352347374,0.8416753411
22.46463841,-2.996412039,-9.317651749,0.717248559
22.47463841,-2.948555708,-9.32662487,0.5880361795
22.48463841,-2.881556749,-9.278767586,0.5694918036
22.49463841,-2.810370207,-9.335597992,0.5264210105
22.50463841,-2.796013355,-9.369096756,0.5359922647
22.51463841,-2.676372051,-9.388837814,0.5982056856
22.52463841,-2.590230465,-9.46002388,0.5551348329
22.53463841,-2.595016241,-9.459425926,0.4881358147
22.54463841,-2.604587555,-9.425926208,0.4737788737
22.55463841,-2.590230465,-9.350552559,0.5940182209
22.56463841,-2.6620152,-9.369096756,0.5413761139
22.57463841,-2.64227438,-9.436694145,0.6317051649
22.58463841,-2.618944407,-9.479166985,0.5647061467
22.59463841,-2.618944407,-9.397212982,0.4791627228
22.60463841,-2.519043922,-9.339186668,0.3170489967
22.61463841,-2.43708992,-9.239286423,0.5144568682
22.62463841,-2.508874655,-9.202198029,0.6675975323
22.63463841,-2.570489645,-9.251250267,0.8249256015
22.64463841,-2.656631231,-9.299705505,0.8769695163
22.65463841,-2.709273338,-9.342177391,0.7854440212
22.66463841,-2.723630428,-9.389435768,0.7130611539
22.67463841,-2.724228621,-9.436096191,0.5359922647
22.68463841,-2.815155745,-9.464211464,0.3966103494
22.69463841,-2.843869686,-9.449256897,0.3146561682
22.70463841,-2.886940479,-9.435498238,0.4486542344
22.71463841,-2.986840963,-9.379266739,0.5641079545
22.72463841,-3.05862546,-9.350552559,0.5395814776
22.73463841,-2.992224693,-9.358329773,0.3391826153
22.74463841,-3.001796007,-9.391828537,0.262014091
22.75463841,-3.011367321,-9.329017639,0.2051845491
22.76463841,-3.001796007,-9.257232666,0.2482553422
22.77463841,-2.991626501,-9.21117115,0.5168496966
22.78463841,-2.982055187,-9.208778381,0.8572286963
22.79463841,-3.03888464,-9.195617676,1.082154036
22.80463841,-3.067598581,-9.258428574,1.100698471
22.81463841,-3.067598581,-9.343374252,0.9661021233
22.82463841,-2.991626501,-9.437891006,0.7692924738
22.83463841,-2.857628345,-9.446864128,0.6550351977
22.84463841,-2.804986238,-9.451051712,0.5688936114
22.85463841,-2.705085993,-9.397810936,0.5599204898
22.86463841,-2.6620152,-9.354740143,0.5318048596
22.87463841,-2.690729141,-9.306285858,0.3882354796
22.88463841,-2.748156786,-9.2865448,0.3212364316
22.89463841,-2.805584431,-9.281160355,0.2727817893
22.90463841,-2.887538671,-9.328418732,0.1381855011
22.91463841,-2.915654421,-9.318847656,0.1668993831
22.92463841,-2.958725214,-9.324830055,0.3008974493
22.93463841,-2.944368362,-9.282357216,0.4163511395
22.94463841,-2.934198856,-9.312267303,0.5886343718
22.95463841,-2.919841766,-9.346364975,0.7076773047
22.96463841,-2.900699139,-9.351150513,0.6550351977
22.97463841,-2.862414122,-9.379266739,0.6119644046
22.98463841,-2.824128866,-9.412766457,0.5928218365
22.99463841,-2.800200701,-9.39840889,0.650847733
23.00463841,-2.824128866,-9.370293617,0.6891329288
23.01463841,-2.852842808,-9.355937004,0.6556333899
23.02463841,-2.871985435,-9.369695663,0.6454638839
23.03463841,-2.948555708,-9.417551994,0.6065805554
23.04463841,-2.920439959,-9.407382011,0.4827519655
23.05463841,-2.920439959,-9.411569595,0.3577269912
23.06463841,-2.934797049,-9.439684868,0.3290131092
23.07463841,-2.934797049,-9.421739578,0.4534398913
23.08463841,-2.891726255,-9.416953087,0.4636093974
23.09463841,-2.877369165,-9.411569595,0.4205385745
23.10463841,-2.863012314,-9.406784058,0.4205385745
23.11463841,-2.84805727,-9.431310654,0.5449653864
23.12463841,-2.843271494,-9.485149384,0.7166503668
23.13463841,-2.819343328,-9.485747337,0.793818891
23.14463841,-2.824128866,-9.470791817,0.7220342159
23.15463841,-2.871985435,-9.422337532,0.5880361795
23.16463841,-2.982653379,-9.368498802,0.4205385745
23.17463841,-2.958725214,-9.454640388,0.3960121572
23.18463841,-2.958127022,-9.57129097,0.7256234884
23.19463841,-2.991028309,-9.644869804,0.9882357717
23.20463841,-3.009572744,-9.646664619,1.280160069
23.21463841,-3.004786968,-9.450452805,1.214357495
23.22463841,-2.986242771,-9.21535778,1.15393877
23.23463841,-3.000599623,-9.061619759,1.025324464
23.24463841,-2.967698336,-8.950951576,0.9355936646
23.25463841,-2.82831645,-8.833105087,1.233500123
23.26463841,-2.727817774,-8.618349075,1.4267205
23.27463841,-2.637488842,-8.321041107,1.261615753
23.28463841,-2.589632273,-8.148159027,1.258026481
23.29463841,-2.54117775,-7.915457249,1.470389485
23.30463841,-2.455035925,-7.519444942,1.693520188
23.31463841,-2.287538528,-7.204789162,1.887338877
23.32463841,-2.043470621,-7.124629498,2.161915302
23.33463841,-1.670190215,-7.3980093,2.286342144
23.34463841,-1.631306887,-8.035098076,2.39222455
23.35463841,-1.832303882,-8.512466431,2.120639086
23.36463841,-2.148754835,-8.858229637,1.551745534
23.37463841,-2.373680115,-9.221340179,1.453041553
23.38463841,-2.569293261,-9.399605751,1.556531072
23.39463841,-2.960519791,-9.0921278,2.078764677
23.40463841,-3.041277647,-8.736793518,2.650649309
23.41463841,-3.07836628,-8.77448082,3.306282759
23.42463841,-3.278167009,-8.74576664,4.028914928
23.43463841,-3.153141975,-8.790632248,4.335196495
23.44463841,-4.03788805,-9.139984131,4.253242016
23.45463841,-4.478167534,-9.268000603,3.963710785
23.46463841,-3.278765202,-9.000003815,3.390031576
23.47463841,-2.868396044,-9.025128365,2.874378204
23.48463841,-2.547757864,-9.136395454,3.138186932
23.49463841,-2.435893536,-8.912666321,4.10309267
23.50463841,-2.320439816,-8.667402267,4.636094093
23.51463841,-2.16670084,-8.277371407,5.094319344
23.52463841,-1.94715941,-7.697710514,5.007579803
23.53463841,-2.096112728,-7.276573658,4.923830986
23.54463841,-2.09671092,-6.892525673,4.768297195
23.55463841,-2.569891453,-7.297510624,4.452444553
23.56463841,-2.4173491,-7.378268719,4.342374802
23.57463841,-2.172683001,-7.313662529,4.77009201
23.58463841,-2.114058733,-7.360920429,5.468796253
23.59463841,-2.16131711,-7.292725086,6.02452898
23.60463841,-2.23728919,-6.993622303,6.413960934
23.61463841,-2.389831543,-6.808776855,6.654439926
23.62463841,-2.686541557,-6.713063717,6.596413612
23.63463841,-2.921038151,-6.731608391,6.456433773
23.64463841,-3.037090063,-6.697510719,5.589633465
23.65463841,-2.766701221,-6.862017155,4.392025948
23.66463841,-2.011167526,-6.554539204,4.29691124
23.67463841,-2.498106956,-7.098906517,4.794020176
23.68463841,-2.554338217,-6.730412006,5.533402443
23.69463841,-2.529811859,-6.202196121,6.068796635
23.70463841,-2.57766819,-5.896512985,6.180660725
23.71463841,-2.462812662,-5.715256691,6.25842762
23.72463841,-2.294716835,-5.7038908,6.757331371
23.73463841,-2.054238319,-5.704489231,7.610970497
23.74463841,-1.924427629,-5.237290382,7.944769382
23.75463841,-1.71924305,-4.92442894,7.669594765
23.76463841,-1.768295884,-5.050650597,7.194619656
23.77463841,-2.074577332,-4.652245522,6.932605267
23.78463841,-1.772483349,-5.629713535,7.171887875
23.79463841,-1.925025821,-6.196214199,7.430910587
23.80463841,-2.164308071,-5.370092392,7.67916584
23.81463841,-2.283949137,-5.005784988,7.624131203
23.82463841,-2.393420935,-4.338187218,8.010572433
23.83463841,-2.689532757,-3.661616802,8.397012711
23.84463841,-3.023331404,-5.475376606,8.370093346
23.85463841,-2.913859844,-5.535196781,7.972286701
23.86463841,-2.938386202,-5.57707119,7.785048485
23.87463841,-2.904886723,-4.753940582,7.838288784
23.88463841,-2.751745939,-4.496711731,8.032107353
23.89463841,-2.526222467,-3.802195072,8.693722725
23.90463841,-2.305484533,-3.862613916,9.215956688
23.91463841,-2.252244234,-4.0127635,9.559925079
23.92463841,-2.386840582,-3.963710785,9.339784622
23.93463841,-2.48793745,-3.846462488,8.918647766
23.94463841,-2.740380049,-3.805784464,9.248259544
23.95463841,-3.075973511,-5.87318325,8.47238636
23.96463841,-2.790629387,-4.366302967,7.869993687
23.97463841,-2.329412937,-3.762115479,9.235696793
23.98463841,-2.328814745,-3.586841106,9.538389206
23.99463841,-2.295913219,-3.342175007,9.415757179
24.00463841,-2.693720102,-2.828914642,9.149555206
24.01463841,-2.683550596,-2.666800737,9.274580956
24.02463841,-2.664407969,-2.439482689,9.635298729
24.03463841,-2.563909531,-2.023729801,9.739386559
24.04463841,-2.42572403,-1.753939033,9.521040916
24.05463841,-2.367697954,-1.928016901,9.821938515
24.06463841,-2.410768747,-1.756331801,9.928419113
24.07463841,-2.592623234,-1.540379524,9.809376717
24.08463841,-2.574079037,-1.233500123,9.653244972
24.09463841,-2.463410854,-1.005583763,10.01396275
24.10463841,-2.343769789,-1.05822587,10.01396275
24.11463841,-2.128415823,-1.081555843,9.943374634
24.12463841,-2.353341103,-0.6903293133,10.07856941
24.13463841,-2.525624275,-0.08434699476,10.34536839
24.14463841,-2.946761131,0.4151547253,10.05942631
24.15463841,-2.987439156,0.6592226624,11.4831562
24.16463841,-2.919841766,0.8231309652,12.08315659
24.17463841,-3.132802963,2.157727718,13.70907879
24.18463841,-3.586841106,1.966302037,13.63908863
24.19463841,-3.291327477,1.21555388,12.85005569
24.20463841,-3.043670416,0.5347958803,12.3104744
24.21463841,-2.944966555,-0.2991028428,10.95553875
24.22463841,-2.325225353,-1.104885817,9.812965393
24.23463841,-1.786242127,-1.045663476,8.833703041
24.24463841,-1.553540111,-0.4145565331,8.211568832
24.25463841,-1.410568953,-0.09152546525,7.883752346
24.26463841,-0.927816987,0.3056831062,7.950153351
24.27463841,-0.4965106845,0.5706881881,8.422736168
24.28463841,-0.5341976285,0.8267202377,8.840881348
24.29463841,-0.7202396393,0.9152546525,9.218947411
24.30463841,-0.9200403094,0.9349954724,9.774082184
24.31463841,-1.121037364,0.9116654396,9.734601021
24.32463841,-1.092323542,1.268794179,9.985847473
24.33463841,-1.130010486,1.352542996,10.36451149
24.34463841,-1.20179522,1.271785259,10.22512913
24.35463841,-1.287936807,1.073180914,9.902696609
24.36463841,-1.188036442,0.9397810698,9.748957634
24.37463841,-1.058824062,1.473978758,10.10728264
24.38463841,-1.072582722,0.5551348329,10.0582304
24.39463841,-1.049252748,0.8446664214,9.748957634
24.40463841,-1.010967612,0.6490531564,9.608977318
24.41463841,-1.063609719,0.1603191197,9.672387123
24.42463841,-1.082154036,0.1932204217,9.778269768
24.43463841,-1.20179522,0.07776673883,9.844072342
24.44463841,-1.144367456,0.1244267747,10.05045319
24.45463841,-1.191625714,0.09930214286,10.29392338
24.46463841,-1.415952802,-0.05443671346,10.28255749
24.47463841,-1.445264935,-0.2195414752,9.975079536
24.48463841,-1.689332843,-0.1280160099,9.783055305
24.49463841,-1.541576028,-0.1178465188,9.769296646
24.50463841,-1.532004714,-0.327816695,9.662816048
24.51463841,-1.636690736,-0.5288137794,9.661021233
24.52463841,-1.746760488,-0.8027920127,9.764511108
24.53463841,-1.722832322,-0.851246655,9.845269203
24.54463841,-1.669592023,-0.7507480979,9.932606697
24.55463841,-1.665404558,-0.6735795736,9.818349838
24.56463841,-1.665404558,-0.7160521746,9.712467194
24.57463841,-1.627119422,-0.7010970116,9.635896683
24.58463841,-1.527219057,-0.7680960894,9.607182503
24.59463841,-1.531406522,-0.8452646136,9.683753014
24.60463841,-1.526620865,-0.926620543,9.716654778
24.61463841,-1.488335729,-0.9409775138,9.750154495
24.62463841,-1.588834286,-0.8165507317,9.702896118
24.63463841,-1.507478237,-0.6831508875,9.790233612
24.64463841,-1.497906923,-0.6065805554,9.799804688
24.65463841,-1.473978758,-0.5012963414,9.872786522
24.66463841,-1.497906923,-0.5533402562,9.76211834
24.67463841,-1.531406522,-0.5868397355,9.704092026
24.68463841,-1.488933921,-0.6484549642,9.670592308
24.69463841,-1.527219057,-0.6340979934,9.613164902
24.70463841,-1.450648785,-0.5581258535,9.714262009
24.71463841,-1.436291814,-0.4809573591,9.671789169
24.72463841,-1.465005636,-0.4037888348,9.547960281
24.73463841,-1.503290772,-0.366101861,9.595816612
24.74463841,-1.560718536,-0.4612165689,9.537193298
24.75463841,-1.579861164,-0.5670989752,9.598808289
24.76463841,-1.694118381,-0.5485545993,9.728020668
24.77463841,-1.698904037,-0.5156532526,9.838089943
24.78463841,-1.664806366,-0.4833501875,10.01097202
24.79463841,-1.698904037,-0.4923232496,9.943972588
24.80463841,-1.627119422,-0.4145565331,9.710074425
24.81463841,-1.622931957,-0.3332005441,9.686145782
24.82463841,-1.60378933,-0.3080759048,9.52881813
24.83463841,-1.546959877,-0.3308077157,9.346963882
24.84463841,-1.546959877,-0.3349951804,9.284749985
24.85463841,-1.613958836,-0.4019941986,9.211769104
24.86463841,-1.680957913,-0.4642075896,9.244669914
24.87463841,-1.689931035,-0.5174478889,9.34038353
24.88463841,-1.737787485,-0.5760720372,9.488140106
24.89463841,-1.741974831,-0.6634100676,9.650253296
24.90463841,-1.789831281,-0.7686942816,9.659226418
24.91463841,-1.794616938,-0.7686942816,9.65444088
24.92463841,-1.746760488,-0.6921239495,9.717252731
24.93463841,-1.727617979,-0.6640082598,9.784252167
24.94463841,-1.727617979,-0.6873382926,9.717252731
24.95463841,-1.703689694,-0.6969096065,9.693324089
24.96463841,-1.674975872,-0.6777670383,9.722038269
24.97463841,-1.694118381,-0.7298108935,9.583254814
24.98463841,-1.685145378,-0.7292127013,9.544969559
24.99463841,-1.694716692,-0.7004988194,9.511469841
25.00463841,-1.703689694,-0.7004988194,9.544969559
25.01463841,-1.689332843,-0.6957131624,9.554540634
25.02463841,-1.679761529,-0.6532405615,9.593423843
25.03463841,-1.617548108,-0.6299105883,9.70827961
25.04463841,-1.631905079,-0.6011967063,9.742377281
25.05463841,-1.612762451,-0.5964110494,9.728020668
25.06463841,-1.579262972,-0.5581258535,9.747162819
25.07463841,-1.545763373,-0.5533402562,9.771689415
25.08463841,-1.574477315,-0.5916253924,9.708877563
25.09463841,-1.584646821,-0.5431707501,9.589237213
25.10463841,-1.599003673,-0.537786901,9.546165466
25.11463841,-1.589432478,-0.5186443329,9.503693581
25.12463841,-1.527219057,-0.4235295951,9.657432556
25.13463841,-1.575075507,-0.4480560422,9.676574707
25.14463841,-1.603191137,-0.4528416991,9.719047546
25.15463841,-1.59840548,-0.4576273263,9.675976753
25.16463841,-1.617548108,-0.4959124923,9.685547829
25.17463841,-1.651047587,-0.4815555513,9.690333366
25.18463841,-1.703689694,-0.4857429862,9.608379364
25.19463841,-1.728216171,-0.4905286431,9.570094109
25.20463841,-1.746760488,-0.524028182,9.632308006
25.21463841,-1.775474429,-0.5575276613,9.60778141
25.22463841,-1.808973908,-0.5958128572,9.568898201
25.23463841,-1.804188251,-0.5910272002,9.56411171
25.24463841,-1.799402595,-0.5718846321,9.60778141
25.25463841,-1.837687731,-0.6005984545,9.583254814
25.26463841,-1.847259045,-0.6197410822,9.607182503
25.27463841,-1.852044702,-0.6293123364,9.635896683
25.28463841,-1.832902193,-0.6388836503,9.607182503
25.29463841,-1.861616015,-0.6484549642,9.568299294
25.30463841,-1.852044702,-0.6580262184,9.573084831
25.31463841,-1.818545222,-0.6346961856,9.659825325
25.32463841,-1.794616938,-0.5958128572,9.641280174
25.33463841,-1.823330879,-0.5862415433,9.626325607
25.34463841,-1.823330879,-0.5910272002,9.583254814
25.35463841,-1.751546144,-0.5575276613,9.612566948
25.36463841,-1.741974831,-0.5527420044,9.641280174
25.37463841,-1.737189293,-0.5096712112,9.651450157
25.38463841,-1.722832322,-0.4618147612,9.627521515
25.39463841,-1.732403636,-0.433100909,9.656833649
25.40463841,-1.756331801,-0.404387027,9.613762856
25.41463841,-1.765903115,-0.4001995921,9.680762291
25.42463841,-1.737787485,-0.4139583111,9.594620705
25.43463841,-1.771286964,-0.4612165689,9.493523598
25.44463841,-1.756929994,-0.4803591371,9.469595909
25.45463841,-1.766501307,-0.5042873621,9.51745224
25.46463841,-1.776072621,-0.5330012441,9.526425362
25.47463841,-1.770688772,-0.5575276613,9.602995872
25.48463841,-1.770688772,-0.5862415433,9.617352486
25.49463841,-1.751546144,-0.5581258535,9.660423279
25.50463841,-1.732403636,-0.5485545993,9.693922997
25.51463841,-1.718046665,-0.5772684813,9.693922997
25.52463841,-1.722832322,-0.5724828243,9.693922997
25.53463841,-1.746760488,-0.5910272002,9.631709099
25.54463841,-1.722832322,-0.6053841114,9.598209381
25.55463841,-1.741974831,-0.6149554253,9.583852768
25.56463841,-1.751546144,-0.6239284873,9.540184021
25.57463841,-1.756331801,-0.614357233,9.554540634
25.58463841,-1.770688772,-0.6101697683,9.59282589
25.59463841,-1.804188251,-0.6245267391,9.597611427
25.60463841,-1.837687731,-0.6293123364,9.635896683
25.61463841,-1.828116536,-0.6340979934,9.611968994
25.62463841,-1.818545222,-0.6155536175,9.664610863
25.63463841,-1.828116536,-0.5772684813,9.665208817
25.64463841,-1.823330879,-0.5772684813,9.660423279
25.65463841,-1.832902193,-0.5479564071,9.60778141
25.66463841,-1.813759565,-0.5192425251,9.569496155
25.67463841,-1.800000787,-0.5288137794,9.55035305
25.68463841,-1.804188251,-0.566500783,9.540781975
25.69463841,-1.804786444,-0.5282155871,9.545567513
25.70463841,-1.804188251,-0.5288137794,9.583852768
25.71463841,-1.847259045,-0.524028182,9.57906723
25.72463841,-1.842473388,-0.5383850932,9.631709099
25.73463841,-1.852044702,-0.5575276613,9.626923561
25.74463841,-1.828116536,-0.5629115105,9.674779892
25.75463841,-1.823330879,-0.5581258535,9.655637741
25.76463841,-1.818545222,-0.5485545993,9.650852203
25.77463841,-1.770688772,-0.5383850932,9.617352486
25.78463841,-1.789831281,-0.5527420044,9.631709099
25.79463841,-1.837687731,-0.5910272002,9.59282589
25.80463841,-1.847259045,-0.5910272002,9.611968994
25.81463841,-1.837687731,-0.5718846321,9.616754532
25.82463841,-1.818545222,-0.5862415433,9.62154007
25.83463841,-1.856830359,-0.6340979934,9.588040352
25.84463841,-1.856830359,-0.6436693072,9.559326172
25.85463841,-1.861616015,-0.6675975323,9.563513756
25.86463841,-1.813759565,-0.6675975323,9.616754532
25.87463841,-1.775474429,-0.5958128572,9.626923561
25.88463841,-1.804188251,-0.5910272002,9.573683739
25.89463841,-1.727617979,-0.5718846321,9.650852203
25.90463841,-1.746760488,-0.5623133183,9.626923561
25.91463841,-1.756331801,-0.5383850932,9.598209381
25.92463841,-1.799402595,-0.5910272002,9.573683739
25.93463841,-1.814357758,-0.590429008,9.530612946
25.94463841,-1.794616938,-0.6293123364,9.578469276
25.95463841,-1.808973908,-0.6436693072,9.588040352
25.96463841,-1.813759565,-0.6149554253,9.573683739
25.97463841,-1.789831281,-0.6155536175,9.655039787
25.98463841,-1.789831281,-0.6059823632,9.6693964
25.99463841,-1.823330879,-0.6107679605,9.6693964
26.00463841,-1.74735868,-0.546759963,9.425926208
26.01463841,-1.751546144,-0.5383850932,9.617352486
26.02463841,-1.837687731,-0.5575276613,9.569496155
26.03463841,-1.775474429,-0.5048855543,9.584450722
26.04463841,-1.838286042,-0.4755735099,9.521639824
26.05463841,-1.813759565,-0.500099957,9.569496155
26.06463841,-1.688734531,-0.5838487148,9.972088814
26.07463841,-1.67437768,-0.604187727,10.17308521
26.08463841,-1.761117458,-0.6257231236,9.837491989
26.09463841,-1.780858278,-0.6664010882,9.425328255
26.10463841,-1.919043779,-0.8440681696,9.45224762
26.11463841,-2.015953064,-0.4671986103,8.932407379
26.15075873,-2.638087034,-9.360123634,0.641874671
26.16075873,-2.676372051,-9.282357216,0.4025924206
26.17075873,-2.676970243,-9.324232101,0.2877369225
26.18075873,-2.581257343,-9.362516403,0.2973082066
26.19075873,-2.504687071,-9.381659508,0.3068794906
26.20075873,-2.599801779,-9.449256897,0.3349951804
26.21075873,-2.638087034,-9.372686386,0.3308077157
26.22075873,-2.590230465,-9.354142189,0.4025924206
26.23075873,-2.671586514,-9.387641907,0.4019941986
26.24075873,-2.652443886,-9.40199852,0.3972085714
26.25075873,-2.671586514,-9.420542717,0.3541377485
26.26075873,-2.695514679,-9.410971642,0.3158525825
26.27075873,-2.666800737,-9.372686386,0.3589234054
26.28075873,-2.681157827,-9.387641907,0.3876372576
26.29075873,-2.6620152,-9.382855415,0.4211367965
26.30075873,-2.748156786,-9.387641907,0.4019941986
26.31075873,-2.729014158,-9.368498802,0.4689932466
26.32075873,-2.743371248,-9.354740143,0.5072783828
26.33075873,-2.733799934,-9.330811501,0.5509474277
26.34075873,-2.695514679,-9.384052277,0.6077769399
26.35075873,-2.637488842,-9.422337532,0.650847733
26.36075873,-2.647658348,-9.446265221,0.6317051649
26.37075873,-2.652443886,-9.465408325,0.5886343718
26.38075873,-2.676372051,-9.412167549,0.5264210105
26.39075873,-2.709871531,-9.387641907,0.4450650215
26.40075873,-2.690729141,-9.364311218,0.5222335458
26.41075873,-2.733799934,-9.393025398,0.4785645306
26.42075873,-2.724228621,-9.379266739,0.5934200287
26.43075873,-2.719442844,-9.383454323,0.5647061467
26.44075873,-2.690729141,-9.402596474,0.5359922647
26.45075873,-2.714657307,-9.455238342,0.5018945336
26.46075873,-2.690729141,-9.516854286,0.4348955154
26.47075873,-2.642872572,-9.531210899,0.4396811724
26.48075873,-2.623729944,-9.516854286,0.4396811724
26.49075873,-2.580659151,-9.435498238,0.4689932466
26.50075873,-2.537588358,-9.383454323,0.5126622319
26.51075873,-2.489732027,-9.354740143,0.5802595019
26.52075873,-2.475374937,-9.312267303,0.6957131624
26.53075873,-2.580060959,-9.322437286,0.709471941
26.54075873,-2.647060156,-9.30807972,0.7381857634
26.55075873,-2.680559635,-9.332008362,0.694516778
26.56075873,-2.742773056,-9.417551994,0.5790630579
26.57075873,-2.752344131,-9.503094673,0.5545366406
26.58075873,-2.776870728,-9.507881165,0.5012963414
26.59075873,-2.771486759,-9.441479683,0.5784648657
26.60075873,-2.752344131,-9.393623352,0.6556333899
26.61075873,-2.761915445,-9.346364975,0.6987041831
26.62075873,-2.790629387,-9.341579437,0.6843472719
26.63075873,-2.757129908,-9.341579437,0.670588553
26.64075873,-2.752344131,-9.374481201,0.6604190469
26.65075873,-2.718844652,-9.379266739,0.5982056856
26.66075873,-2.685943365,-9.416953087,0.5264210105
26.67075873,-2.700300455,-9.406784058,0.4594219327
26.68075873,-2.690729141,-9.397212982,0.4594219327
26.69075873,-2.700300455,-9.425926208,0.4307080805
26.70075873,-2.6620152,-9.411569595,0.4594219327
26.71075873,-2.642872572,-9.37328434,0.4839483798
26.72075873,-2.62851572,-9.306883812,0.498903513
26.73075873,-2.590230465,-9.297312737,0.55154562
26.74075873,-2.62851572,-9.287740707,0.5371887088
26.75075873,-2.604587555,-9.297312737,0.55154562
26.76075873,-2.585444927,-9.316454887,0.5659025311
26.77075873,-2.585444927,-9.34038353,0.55154562
26.78075873,-2.623729944,-9.330811501,0.5796613097
26.79075873,-2.724228621,-9.388239861,0.4977070987
26.80075873,-2.742773056,-9.345767021,0.6035895348
26.81075873,-2.752344131,-9.346364975,0.670588553
26.82075873,-2.766701221,-9.331410408,0.6083751321
26.83075873,-2.73798728,-9.388837814,0.5934200287
26.84075873,-2.700300455,-9.460622787,0.5790630579
26.85075873,-2.733799934,-9.455238342,0.5449653864
26.86075873,-2.767299414,-9.416953087,0.5120640397
26.87075873,-2.791227579,-9.407382011,0.4971089065
26.88075873,-2.829512835,-9.402596474,0.5114658475
26.89075873,-2.819941521,-9.388239861,0.5306084156
26.90075873,-2.867797852,-9.387641907,0.4253242314
26.91075873,-2.824727058,-9.37328434,0.4354937077
26.92075873,-2.796013355,-9.393025398,0.5168496966
26.93075873,-2.7577281,-9.373882294,0.5551348329
26.94075873,-2.690729141,-9.384052277,0.5934200287
26.95075873,-2.623729944,-9.412167549,0.5700899959
26.96075873,-2.580659151,-9.426525116,0.5222335458
26.97075873,-2.566302299,-9.407382011,0.5461617708
26.98075873,-2.561516523,-9.388239861,0.5413761139
26.99075873,-2.609373093,-9.364311218,0.5461617708
27.00075873,-2.633301258,-9.354740143,0.5413761139
27.01075873,-2.700300455,-9.421739578,0.5120640397
27.02075873,-2.738585472,-9.498309135,0.5449653864
27.03075873,-2.738585472,-9.493523598,0.4827519655
27.04075873,-2.7577281,-9.445667267,0.4827519655
27.05075873,-2.762513638,-9.421739578,0.5114658475
27.06075873,-2.767299414,-9.397810936,0.4833501875
27.07075873,-2.685943365,-9.402596474,0.5072783828
27.08075873,-2.666800737,-9.421739578,0.5312066078
27.09075873,-2.676372051,-9.407382011,0.5168496966
27.10075873,-2.666800737,-9.388239861,0.5024927258
27.11075873,-2.681157827,-9.421140671,0.4067798555
27.12075873,-2.695514679,-9.397212982,0.4019941986
27.13075873,-2.705085993,-9.392427444,0.3924229145
27.14075873,-2.719442844,-9.383454323,0.5072783828
27.15075873,-2.733799934,-9.384052277,0.5742774606
27.16075873,-2.729014158,-9.360123634,0.5790630579
27.17075873,-2.724228621,-9.364311218,0.5312066078
27.18075873,-2.719442844,-9.425926208,0.4402793646
27.19075873,-2.6620152,-9.464211464,0.4019941986
27.20075873,-2.62851572,-9.501898766,0.3487538993
27.21075873,-2.609373093,-9.444471359,0.3589234054
27.22075873,-2.642872572,-9.449854851,0.4019941986
27.23075873,-2.623729944,-9.411569595,0.4737788737
27.24075873,-2.642872572,-9.378668785,0.5126622319
27.25075873,-2.652443886,-9.326025963,0.5557330847
27.26075873,-2.690729141,-9.378668785,0.5599204898
27.27075873,-2.709871531,-9.354142189,0.4791627228
27.28075873,-2.671586514,-9.363713264,0.4265206456
27.29075873,-2.690729141,-9.378069878,0.3972085714
27.30075873,-2.666800737,-9.392427444,0.4211367965
27.31075873,-2.671586514,-9.397212982,0.4833501875
27.32075873,-2.690729141,-9.407382011,0.5120640397
27.33075873,-2.709871531,-9.421739578,0.5072783828
27.34075873,-2.743371248,-9.474381447,0.4923232496
27.35075873,-2.767299414,-9.464810371,0.4875376225
27.36075873,-2.805584431,-9.474381447,0.4923232496
27.37075873,-2.781656265,-9.436096191,0.5258227587
27.38075873,-2.781656265,-9.412167549,0.5114658475
27.39075873,-2.762513638,-9.393025398,0.5407779217
27.40075873,-2.767299414,-9.330811501,0.4929214716
27.41075873,-2.719442844,-9.335597992,0.5030909777
27.42075873,-2.714657307,-9.358927727,0.4354937077
27.43075873,-2.685943365,-9.397212982,0.4115654826
27.44075873,-2.62851572,-9.411569595,0.3972085714
27.45075873,-2.580659151,-9.40199852,0.4408775866
27.46075873,-2.618944407,-9.421739578,0.5024927258
27.47075873,-2.623729944,-9.393025398,0.5270192027
27.48075873,-2.690729141,-9.383454323,0.5024927258
27.49075873,-2.724228621,-9.416953087,0.4881358147
27.50075873,-2.733799934,-9.46002388,0.5066801906
27.51075873,-2.748156786,-9.46002388,0.4971089065
27.52075873,-2.705085993,-9.416953087,0.4929214716
27.53075873,-2.676372051,-9.412167549,0.5120640397
27.54075873,-2.681157827,-9.474381447,0.5114658475
27.55075873,-2.633301258,-9.412167549,0.4929214716
27.56075873,-2.604587555,-9.382855415,0.4839483798
27.57075873,-2.571087837,-9.339784622,0.4893322289
27.58075873,-2.599801779,-9.359525681,0.5222335458
27.59075873,-2.623729944,-9.402596474,0.5222335458
27.60075873,-2.6620152,-9.421140671,0.4833501875
27.61075873,-2.709871531,-9.435498238,0.4737788737
27.62075873,-2.776870728,-9.454640388,0.3966103494
27.63075873,-2.743371248,-9.4307127,0.4444667995
27.64075873,-2.7577281,-9.354740143,0.5168496966
27.65075873,-2.743371248,-9.335597992,0.560518682
27.66075873,-2.705085993,-9.369096756,0.5455635786
27.67075873,-2.729014158,-9.455238342,0.4827519655
27.68075873,-2.642872572,-9.445667267,0.5359922647
27.69075873,-2.642872572,-9.426525116,0.5551348329
27.70075873,-2.6620152,-9.388239861,0.560518682
27.71075873,-2.638087034,-9.345169067,0.5653043389
27.72075873,-2.657229662,-9.388239861,0.5509474277
27.73075873,-2.676372051,-9.426525116,0.5455635786
27.74075873,-2.705085993,-9.446265221,0.5742774606
27.75075873,-2.699702263,-9.42712307,0.6077769399
27.76075873,-2.666202545,-9.42712307,0.6412764788
27.77075873,-2.685345173,-9.417551994,0.650847733
27.78075873,-2.656631231,-9.403194427,0.6364908218
27.79075873,-2.670988321,-9.379266739,0.6227321029
27.80075873,-2.676372051,-9.407979965,0.5838487148
27.81075873,-2.714657307,-9.446265221,0.5742774606
27.82075873,-2.681157827,-9.450452805,0.5742774606
27.83075873,-2.690729141,-9.417551994,0.5934200287
27.84075873,-2.690130949,-9.403194427,0.6412764788
27.85075873,-2.670988321,-9.374481201,0.641874671
27.86075873,-2.690130949,-9.355937004,0.6801598072
27.87075873,-2.690130949,-9.38465023,0.6801598072
27.88075873,-2.709273338,-9.41336441,0.7178468108
27.89075873,-2.728415966,-9.432506561,0.7130611539
27.90075873,-2.723630428,-9.428318977,0.7752745152
27.91075873,-2.785843849,-9.437292099,0.7411768436
27.92075873,-2.761915445,-9.409176826,0.7944171429
27.93075873,-2.761915445,-9.394221306,0.7465606928
27.94075873,-2.747558594,-9.370293617,0.7465606928
27.95075873,-2.723630428,-9.356534958,0.7854440212
27.96075873,-2.747558594,-9.346963882,0.7902296782
27.97075873,-2.752344131,-9.35174942,0.8333004713
27.98075873,-2.776272535,-9.357132912,0.8614161611
27.99075873,-2.804986238,-9.376275063,0.8709874153
28.00075873,-2.828914642,-9.333204269,0.866201818
28.01075873,-2.857030153,-9.357132912,0.8997012973
28.02075873,-2.866601467,-9.333803177,0.9379864931
28.03075873,-2.866601467,-9.324232101,0.9762716293
28.04075873,-2.82831645,-9.305088997,0.9720842242
28.05075873,-2.809173822,-9.305088997,0.9481559992
28.06075873,-2.742174864,-9.352945328,0.9529415965
28.07075873,-2.708675146,-9.443872452,0.9810572863
28.08075873,-2.713460922,-9.443274498,0.9379864931
28.09075873,-2.770888567,-9.391230583,0.9571290612
28.10075873,-2.804388046,-9.329615593,1.048654556
28.11075873,-2.82831645,-9.276374817,0.9912267923
28.12075873,-2.852842808,-9.247062683,0.8907282352
28.13075873,-2.838485956,-9.285347939,0.8907282352
28.14075873,-2.776272535,-9.381061554,0.8949156404
28.15075873,-2.752344131,-9.437292099,0.760917604
28.16075873,-2.800200701,-9.470193863,0.6119644046
28.17075873,-2.843271494,-9.412167549,0.5210371017
28.18075873,-2.843271494,-9.354740143,0.5455635786
28.19075873,-2.876770973,-9.354740143,0.5306084156
28.20075873,-2.881556749,-9.336195946,0.5599204898
28.21075873,-2.915056229,-9.364909172,0.5784648657
28.22075873,-2.900699139,-9.355338097,0.5545366406
28.23075873,-2.747558594,-9.373882294,0.5694918036
28.24075873,-2.575873613,-9.37328434,0.4217349887
28.25075873,-2.45683074,-9.434301376,0.2877369225
28.26075873,-2.389831543,-9.370891571,0.06340979785
28.27075873,-2.34676075,-9.385248184,0.1160518974
28.28075873,-2.423331022,-9.400203705,0.1543370634
28.29075873,-2.452044964,-9.44865799,0.3068794906
28.30075873,-2.528017044,-9.412167549,0.5748756528
28.31075873,-2.594418049,-9.418149948,0.7663014531
28.32075873,-2.670988321,-9.524630547,0.9086744189
28.33075873,-2.737389088,-9.562915802,0.927816987
28.34075873,-2.71824646,-9.591629982,0.912861824
28.35075873,-2.685345173,-9.605388641,0.7692924738
28.36075873,-2.633301258,-9.498309135,0.5551348329
28.37075873,-2.609373093,-9.459425926,0.4450650215
28.38075873,-2.595016241,-9.45583725,0.5886343718
28.39075873,-2.613560438,-9.480362892,0.732203722
28.40075873,-2.670988321,-9.43848896,0.9379864931
28.41075873,-2.770888567,-9.439086914,1.004985452
28.42075873,-2.818745136,-9.404989243,0.8997012973
28.43075873,-2.843271494,-9.327820778,0.8183453679
28.44075873,-2.919841766,-9.241081238,0.6993024349
28.45075873,-2.991626501,-9.164510727,0.6610172391
28.46075873,-2.905484915,-8.969495773,0.8542376757
28.47075873,-2.852244616,-8.708079338,1.152742267
28.48075873,-2.890529871,-8.536993027,1.359721422
28.49075873,-2.90428853,-8.409575462,1.657029629
28.50075873,-2.903690338,-8.297710419,2.079362869
28.51075873,-2.89830637,-8.467002869,2.370688915
28.52075873,-2.793022156,-8.792427063,2.411965132
28.53075873,-2.797807932,-9.044271469,2.156531334
28.54075873,-2.860619545,-9.209974289,1.819741607
28.55075873,-2.898904562,-9.333204269,1.608574986
28.56075873,-3.008974552,-9.424132347,1.621735573
28.57075873,-3.071187973,-9.419944763,1.693520188
28.58075873,-3.032304525,-9.34457016,1.875972986
28.59075873,-2.970091105,-9.206983566,2.13559413
28.60075873,-2.81695056,-9.135198593,2.112862349
28.61075873,-2.583052158,-9.029914856,2.118844509
28.62075873,-2.425125837,-9.023932457,1.966302037
28.63075873,-2.397010088,-9.12861824,1.884347796
28.64075873,-2.607578516,-9.34815979,1.738385677
28.65075873,-2.736192703,-9.449854851,1.895713687
28.66075873,-2.784049034,-9.473783493,1.971685886
28.67075873,-2.883949518,-9.340981483,2.139781713
28.68075873,-2.893520832,-9.087342262,2.127219439
28.69075873,-2.803191662,-8.761918068,2.120040894
28.70075873,-2.529811859,-8.433503151,2.472383976
28.71075873,-2.324028969,-8.167900085,2.824727058
28.72075873,-2.074577332,-8.017151833,3.233899832
28.73075873,-1.99800694,-8.05065155,3.310470104
28.74075873,-1.849651933,-8.289934158,3.26141715
28.75075873,-1.773081541,-8.398807526,3.122035265
28.76075873,-1.768894196,-8.555537224,2.96291256
28.77075873,-1.883749604,-8.603992462,2.971885681
28.78075873,-2.098505497,-8.571688652,3.153141975
28.79075873,-2.227119684,-8.621937752,3.516252756
28.80075873,-2.527418852,-8.716454506,4.0127635
28.81075873,-2.722434044,-8.474779129,4.449453831
28.82075873,-2.392822742,-8.182855606,4.447659016
28.83075873,-2.307279348,-8.196015358,4.299304008
28.84075873,-2.450848579,-8.438887596,4.048057556
28.85075873,-2.523231506,-8.513064384,3.674179077
28.86075873,-2.504088879,-8.58365345,3.458226919
28.87075873,-2.484946251,-8.550751686,3.611965895
28.88075873,-2.53280282,-8.504091263,3.769891977
28.89075873,-2.694318295,-8.363512993,4.244269371
28.90075873,-2.760719061,-8.137392044,4.767100811
28.91075873,-2.76909399,-7.839485168,5.324628353
28.92075873,-3.203989506,-7.888537884,5.466403484
28.93075873,-3.386442184,-8.024929047,5.096114159
28.94075873,-3.076571703,-8.069195747,4.579862595
28.95075873,-2.675175667,-8.078168869,4.48534584
28.96075873,-2.426322222,-8.035696983,4.65403986
28.97075873,-2.316252232,-7.944170952,4.5930233
28.98075873,-2.254637241,-7.72223711,4.322035789
28.99075873,-2.21156621,-7.631309509,4.279563427
29.00075873,-2.139183521,-7.767102242,4.575675011
29.01075873,-2.172084808,-7.697710514,4.992624283
29.02075873,-2.410170555,-7.553543091,5.557928562
29.03075873,-2.542374134,-7.349554539,6.659823418
29.04075873,-2.728415966,-7.237092018,7.023532867
29.05075873,-2.820539713,-7.166503906,6.430112839
29.06075873,-3.089133978,-6.38823843,5.931209087
29.07075873,-2.196611166,-6.941578388,4.96391058
29.08075873,-2.134397745,-7.533204079,4.644468784
29.09075873,-2.239083767,-7.152745247,5.067399979
29.10075873,-2.401197433,-6.549753666,5.755934715
29.11075873,-2.165504456,-6.267998695,6.634698868
29.12075873,-1.978864312,-6.158527374,6.765107632
29.13075873,-1.969292998,-6.21894598,6.506682873
29.14075873,-2.103889227,-6.026323795,6.344569206
29.15075873,-2.213361025,-5.955735683,6.521637917
29.16075873,-2.169692039,-5.904888153,6.799803734
29.17075873,-2.183450699,-5.678168297,7.24666357
29.18075873,-2.398804665,-5.261816978,7.214958668
29.19075873,-2.27078867,-5.033302307,6.646663189
29.20075873,-1.917847395,-5.055436134,6.408577442
29.21075873,-1.60678041,-5.012963295,6.544369698
29.22075873,-1.835294962,-4.954339504,7.132406235
29.23075873,-2.00638175,-4.776073933,7.626523972
29.24075873,-2.078166485,-4.447061062,7.858029366
29.25075873,-2.2259233,-4.735395908,7.975277901
29.26075873,-2.432304144,-5.028516769,7.41236639
29.27075873,-2.365903378,-4.992624283,7.00139904
29.28075873,-2.188236237,-5.100301266,7.408178806
29.29075873,-2.054238319,-4.905286312,7.649255753
29.30075873,-2.044667006,-3.997210264,7.817949772
29.31075873,-2.1302104,-4.085744858,8.195417404
29.32075873,-2.383849621,-4.233501434,8.088338852
29.33075873,-2.517249346,-4.177868366,8.385048866
29.34075873,-2.766103029,-3.828516245,8.285746574
29.35075873,-2.780459881,-3.666402578,8.449056625
29.36075873,-2.732005358,-4.193421841,8.541778564
29.37075873,-2.640479803,-4.158127785,8.997611046
29.38075873,-2.67338109,-3.844667673,9.401400566
29.39075873,-2.841476917,-4.047459602,8.906085968
29.40075873,-2.956930637,-3.888336897,8.648259163
29.41075873,-2.880360365,-3.664607763,8.831908226
29.42075873,-2.588435888,-3.306282759,8.993423462
29.43075873,-2.320439816,-3.288336515,9.190832138
29.44075873,-2.511865616,-2.450848579,9.162117958
29.45075873,-2.52143693,-2.222334146,9.364311218
29.46075873,-2.78883481,-2.553141832,9.461818695
29.47075873,-2.626122952,-2.401197433,9.650253296
29.48075873,-2.276172638,-1.414158225,10.31844902
29.49075873,-2.361716032,-1.487139225,10.49013424
29.50075873,-2.385644197,-1.253240824,10.52542877
29.51075873,-2.352144718,-1.200598717,10.53978539
29.52075873,-2.294716835,-1.430907965,10.63908768
29.53075873,-2.489732027,-0.5258227587,11.31924725
29.54075873,-2.484348059,-0.7728816867,11.74397373
29.55075873,-2.260020971,-0.9966106415,11.60459137
29.56075873,-1.632503271,-0.3535395563,12.2099762
29.57075873,-1.669592023,1.514656782,13.45723438
29.58075873,-1.53918314,1.871785522,14.43649769
29.59075873,-2.055434704,1.613958836,14.35155201
29.60075873,-2.478366137,1.258026481,13.00199986
29.61075873,-2.207378864,0.3122633696,12.00598717
29.62075873,-1.640279889,-0.008374879137,10.59362411
29.63075873,-1.613360643,-0.614357233,9.483354568
29.64075873,-1.202991605,-0.8255237937,8.885149002
29.65075873,-0.6538388133,-0.3343969584,8.497511864
29.66075873,-0.2584248483,-0.05742774159,7.931010723
29.67075873,-0.1154536903,0.3409772217,7.728219032
29.68075873,-0.0005982056609,0.7465606928,7.928019524
29.69075873,-0.004187439568,0.9002995491,8.642276764
29.70075873,-0.457029134,0.6717849374,9.136993408
29.71075873,-0.5437689424,1.359721422,9.279964447
29.72075873,-0.9206385016,1.620539188,9.649057388
29.73075873,-1.341177106,1.948355794,9.951150894
29.74075873,-1.661217093,2.147558212,10.22393322
29.75075873,-1.948355794,2.295315027,10.22393322
29.76075873,-2.024327993,2.261815548,10.26640511
29.77075873,-1.938186288,1.755135417,10.134202
29.78075873,-1.546959877,1.184447169,9.68674469
29.79075873,-1.618744493,0.6490531564,9.544371605
29.80075873,-1.642074585,0.1992024779,9.570094109
29.81075873,-1.60378933,-0.04546362907,9.588040352
29.82075873,-1.316650629,-0.2033899277,9.64068222
29.83075873,-1.259222865,-0.4031906128,9.529416084
29.84075873,-1.229910851,-0.5204389095,9.825528145
29.85075873,-1.205982566,-0.4588237405,9.940981865
29.86075873,-1.387238979,-0.3744767308,10.2281208
29.87075873,-1.616351724,-0.3583251834,10.65344429
29.88075873,-1.926820397,-0.3260220885,10.83948612
29.89075873,-2.103889227,-0.3678964674,10.57986546
29.90075873,-2.104487419,-0.37986058,10.22991467
29.91075873,-1.980658889,-0.3876372576,9.972088814
29.92075873,-1.723430514,-0.3756731451,9.594620705
29.93075873,-1.714457393,-0.5024927258,9.192028046
29.94075873,-1.776670814,-0.7166503668,9.022735596
29.95075873,-1.556531072,-0.8111668825,8.912666321
29.96075873,-1.714457393,-0.8177471161,9.151350021
29.97075873,-1.594218135,-0.9912267923,9.29432106
29.98075873,-1.756929994,-0.8955138922,9.32303524
29.99075873,-1.790429592,-0.7812566161,9.452845573
30.00075873,-1.794616938,-0.6777670383,9.683753014
30.01075873,-1.655235052,-0.5359922647,9.967302322
30.02075873,-1.48295188,-0.4265206456,10.08873844
30.03075873,-1.45483613,-0.4677968323,9.872786522
30.04075873,-1.35912323,-0.4348955154,9.954740524
30.05075873,-1.354337573,-0.4450650215,10.07438183
30.06075873,-1.397408366,-0.5024927258,10.03071213
30.07075873,-1.416550994,-0.5641079545,9.968499184
30.08075873,-1.536192179,-0.5676971674,9.714262009
30.09075873,-1.512862086,-0.5288137794,9.647262573
30.10075873,-1.469791293,-0.5096712112,9.69093132
30.11075873,-1.497906923,-0.5150550604,9.747760773
30.12075873,-1.508076429,-0.5288137794,9.666405678
30.13075873,-1.622333765,-0.6532405615,9.60778141
30.14075873,-1.737787485,-0.7100701332,9.473184586
30.15075873,-1.857428551,-0.6664010882,9.439086914
30.16075873,-1.809572101,-0.6472585201,9.420542717
30.17075873,-1.766501307,-0.6287141442,9.506684303
30.18075873,-1.727617979,-0.6484549642,9.645467758
30.19075873,-1.751546144,-0.6825526357,9.702896118
30.20075873,-1.804188251,-0.7256234884,9.65444088
30.21075873,-1.770688772,-0.8697910309,9.787840843
30.22075873,-1.794018745,-0.9236295223,9.93559742
30.23075873,-1.951945066,-0.9714859724,9.944570541
30.24075873,-2.076371908,-0.9236295223,9.963713646
30.25075873,-2.162513494,-0.8943174481,9.853045464
30.26075873,-2.105085611,-0.8883354068,9.675976753
30.27075873,-2.005185366,-0.9164510965,9.57129097
30.28075873,-2.009970903,-0.9547362328,9.5754776
30.29075873,-2.024327993,-0.8877372146,9.585647583
30.30075873,-2.019542217,-0.7956135273,9.413962364
30.31075873,-1.80119729,0.01674975827,8.821140289
30.32075873,-2.241476536,-0.8805587292,8.411369324
30.33075873,-2.370090723,-0.9302098155,8.654839516
30.34075873,-2.446063042,-0.8356932998,8.827720642
30.35075873,-2.421536446,-0.8147560954,9.302098274
30.36075873,-2.449652195,-0.798604548,9.790233612
30.37075873,-2.48733902,-0.7896314859,9.895518303
30.38075873,-2.363510609,-0.7268198729,9.858428955
30.39075873,-2.210968018,-0.4576273263,9.668798447
30.40075873,-2.258226395,-0.7944171429,9.906285286
30.41075873,-2.291725874,-0.6975077987,9.700503349
30.42075873,-2.172683001,-0.5850451589,9.395418167
30.43075873,-2.044068813,-0.5653043389,9.262018204
30.44075873,-2.057827473,-0.5282155871,9.472586632
30.45075873,-2.201396942,-0.4857429862,9.5252285
30.46075873,-2.234896421,-0.4815555513,9.625727654
30.47075873,-2.301297188,-0.5820540786,9.667601585
30.48075873,-2.182852507,-0.5222335458,9.314062119
30.49075873,-2.292922258,-0.5449653864,9.059824944
30.50075873,-2.369492531,-0.5976074338,9.073583603
30.51075873,-2.359323025,-0.5419743061,9.370891571
30.52075873,-2.39222455,-0.6107679605,9.614361763
30.53075873,-2.39760828,-0.6149554253,9.489934921
30.54075873,-2.316252232,-0.5425725579,9.409176826
30.55075873,-2.249253273,-0.5802595019,9.395418167
30.56075873,-2.220539331,-0.6047859192,9.46720314
30.57075873,-2.182254314,-0.614357233,9.424132347
30.58075873,-2.187039852,-0.6622136831,9.495318413
30.59075873,-2.191825628,-0.7010970116,9.543174744
30.60075873,-2.201396942,-0.7585247755,9.528220177
30.61075873,-2.258824587,-0.8291130662,9.384052277
30.62075873,-2.249253273,-0.8147560954,9.388837814
30.63075873,-2.234896421,-0.8015955687,9.518050194
30.64075873,-2.210369825,-0.8261220455,9.671191216
30.65075873,-2.200798512,-0.8309076428,9.656833649
30.66075873,-2.229512453,-0.8309076428,9.628120422
30.67075873,-2.254039049,-0.8303094506,9.556335449
30.68075873,-2.282752752,-0.8494520187,9.551549911
30.69075873,-2.244467735,-0.8111668825,9.556335449
30.70075873,-2.215753794,-0.7770691514,9.494720459
30.71075873,-2.225325108,-0.7680960894,9.518648148
30.72075873,-2.210968018,-0.7298108935,9.580862045
30.73075873,-2.163111687,-0.6825526357,9.605388641
30.74075873,-2.182254314,-0.6867401004,9.552745819
30.75075873,-2.230110645,-0.7148557901,9.475577354
30.76075873,-2.191825628,-0.6664010882,9.404391289
30.77075873,-2.163111687,-0.6717849374,9.45224762
30.78075873,-2.163111687,-0.7196413875,9.471389771
30.79075873,-2.158325911,-0.7543373108,9.623932838
30.80075873,-2.182254314,-0.7585247755,9.590433121
30.81075873,-2.172683001,-0.7447660565,9.619147301
30.82075873,-2.215753794,-0.7345965505,9.547362328
30.83075873,-2.196611166,-0.7202396393,9.528220177
30.84075873,-2.210968018,-0.7292127013,9.456435204
30.85075873,-2.187039852,-0.7196413875,9.437292099
30.86075873,-2.187039852,-0.7148557901,9.461818695
30.87075873,-2.177468538,-0.7298108935,9.543174744
30.88075873,-2.177468538,-0.7633104324,9.561718941
30.89075873,-2.210968018,-0.7633104324,9.528220177
30.90075873,-2.201396942,-0.7298108935,9.556933403
30.91075873,-2.191825628,-0.7393822074,9.556933403
30.92075873,-2.167897224,-0.7393822074,9.562317848
30.93075873,-2.234896421,-0.7627122402,9.489934921
30.94075873,-2.215753794,-0.7483552694,9.456435204
30.95075873,-2.210968018,-0.7531409264,9.489934921
30.96075873,-2.187039852,-0.7250252366,9.52881813
30.97075873,-2.225325108,-0.7579265833,9.485149384
30.98075873,-2.191825628,-0.7680960894,9.509077072
30.99075873,-2.167897224,-0.7537391186,9.528220177
31.00075873,-2.167897224,-0.7441678643,9.523433685
31.01075873,-2.172683001,-0.7250252366,9.543174744
31.02075873,-2.201396942,-0.7633104324,9.509077072
31.03075873,-2.196611166,-0.7537391186,9.509077072
31.04075873,-2.191825628,-0.7250252366,9.54257679
31.05075873,-2.163111687,-0.7010970116,9.562317848
31.06075873,-2.196611166,-0.7680960894,9.561718941
31.07075873,-2.220539331,-0.7633104324,9.499505997
31.08075873,-2.201396942,-0.7441678643,9.499505997
31.09075873,-2.20618248,-0.7292127013,9.456435204
31.10075873,-2.191825628,-0.7722834945,9.432506561
31.11075873,-2.187039852,-0.7585247755,9.576076508
31.12075873,-2.210968018,-0.7298108935,9.518648148
31.13075873,-2.20618248,-0.7202396393,9.547362328
31.14075873,-2.215753794,-0.7202396393,9.509077072
31.15075873,-2.215753794,-0.7292127013,9.475577354
31.16075873,-2.196611166,-0.7537391186,9.518648148
31.17075873,-2.210968018,-0.7531409264,9.499505997
31.18075873,-2.215753794,-0.7250252366,9.533005714
31.19075873,-2.254039049,-0.7483552694,9.41336441
31.20075873,-2.230110645,-0.7387840152,9.470791817
31.21075873,-2.225325108,-0.7441678643,9.576076508
31.22075873,-2.249253273,-0.7680960894,9.54257679
31.23075873,-2.244467735,-0.7537391186,9.499505997
31.24075873,-2.230110645,-0.7298108935,9.533005714
31.25075873,-2.215753794,-0.7345965505,9.552147865
31.26075873,-2.210968018,-0.7106683254,9.552745819
31.27075873,-2.220539331,-0.7292127013,9.466006279
31.28075873,-2.225325108,-0.7339983582,9.456435204
31.29075873,-2.239681959,-0.7489534616,9.499505997
31.30075873,-2.239681959,-0.7196413875,9.451649666
31.31075873,-2.244467735,-0.7387840152,9.451649666
31.32075873,-2.263610125,-0.7483552694,9.466006279
31.33075873,-2.254039049,-0.7489534616,9.489934921
31.34075873,-2.239681959,-0.7537391186,9.537791252
31.35075873,-2.210968018,-0.7441678643,9.523433685
31.36075873,-2.20618248,-0.7100701332,9.495318413
31.37075873,-2.196611166,-0.7202396393,9.51386261
31.38075873,-2.201396942,-0.7106683254,9.552745819
31.39075873,-2.210968018,-0.7106683254,9.509077072
31.40075873,-2.230110645,-0.7244270444,9.466006279
31.41075873,-2.215753794,-0.7196413875,9.470791817
31.42075873,-2.220539331,-0.7627122402,9.475577354
31.43075873,-2.220539331,-0.7531409264,9.494720459
31.44075873,-2.215753794,-0.7537391186,9.537791252
31.45075873,-2.201396942,-0.7489534616,9.504291534
31.46075873,-2.210968018,-0.7339983582,9.480362892
31.47075873,-2.234896421,-0.7872386575,9.509077072
31.48075873,-2.234896421,-0.7585247755,9.499505997
31.49075873,-2.196611166,-0.7106683254,9.562317848
31.50075873,-2.254039049,-0.7531409264,9.480362892
31.51075873,-2.220539331,-0.7387840152,9.494720459
31.52075873,-2.20618248,-0.7537391186,9.54257679
31.53075873,-2.215753794,-0.7585247755,9.518648148
31.54075873,-2.201396942,-0.7393822074,9.499505997
31.55075873,-2.230110645,-0.7585247755,9.528220177
31.56075873,-2.234896421,-0.7441678643,9.509077072
31.57075873,-2.249253273,-0.7298108935,9.523433685
31.58075873,-2.258824587,-0.7052844763,9.485149384
31.59075873,-2.244467735,-0.7196413875,9.451649666
31.60075873,-2.220539331,-0.7250252366,9.509077072
31.61075873,-2.191825628,-0.7244270444,9.494720459
31.62075873,-2.225325108,-0.7585247755,9.494720459
31.63075873,-2.210968018,-0.7339983582,9.480362892
31.64075873,-2.210968018,-0.7345965505,9.54257679
31.65075873,-2.249253273,-0.7441678643,9.533005714
31.66075873,-2.273181438,-0.7680960894,9.528220177
31.67075873,-2.287538528,-0.7585247755,9.508479118
31.68075873,-2.244467735,-0.7202396393,9.509077072
31.69075873,-2.230110645,-0.7106683254,9.533005714
31.70075873,-2.215753794,-0.7196413875,9.494720459
31.71075873,-2.234896421,-0.7387840152,9.451649666
31.72075873,-2.244467735,-0.7674978375,9.44207859
31.73075873,-2.230110645,-0.7339983582,9.437292099
31.74075873,-2.220539331,-0.7441678643,9.51386261
31.75075873,-2.230110645,-0.7441678643,9.509077072
31.76075873,-2.220539331,-0.7483552694,9.494720459
31.77075873,-2.210968018,-0.7537391186,9.51386261
31.78075873,-2.20618248,-0.7633104324,9.528220177
31.79075873,-2.201396942,-0.7585247755,9.528220177
31.80075873,-2.20618248,-0.7537391186,9.537791252
31.81075873,-2.210968018,-0.7633104324,9.533005714
31.82075873,-2.220539331,-0.7585247755,9.518648148
31.83075873,-2.220539331,-0.7537391186,9.528220177
31.84075873,-2.230110645,-0.7866404653,9.42712307
31.85075873,-2.234896421,-0.7435696125,9.432506561
31.86075873,-2.191825628,-0.7489534616,9.537791252
31.87075873,-2.182254314,-0.7298108935,9.51386261
31.88075873,-2.201396942,-0.7734799385,9.604789734
31.89075873,-2.201396942,-0.7686942816,9.628718376
31.90075873,-2.220539331,-0.7680960894,9.528220177
31.91075873,-2.196611166,-0.7531409264,9.489934921
31.92075873,-2.196611166,-0.7489534616,9.51386261
31.93075873,-2.191825628,-0.7298108935,9.504291534
31.94075873,-2.210968018,-0.7244270444,9.466006279
31.95075873,-2.196611166,-0.7196413875,9.451649666
31.96075873,-2.234896421,-0.7052844763,9.446864128
31.97075873,-2.215753794,-0.7339983582,9.489934921
31.98075873,-2.210968018,-0.7298108935,9.561718941
31.99075873,-2.210968018,-0.7680960894,9.57129097
32.00075873,-2.249253273,-0.7824530005,9.503693581
32.01075873,-2.258824587,-0.7345965505,9.537791252
32.05231423,-2.900699139,-9.527621269,0.5826523304
32.06231423,-2.839084148,-9.464211464,0.4438686073
32.07231423,-2.772084951,-9.4307127,0.4253242314
32.08231423,-2.709871531,-9.369096756,0.5647061467
32.09231423,-2.723630428,-9.32662487,0.6227321029
32.10231423,-2.809772015,-9.312865257,0.747158885
32.11231423,-2.862414122,-9.265607834,0.8141579032
32.12231423,-2.915056229,-9.246464729,0.8093722463
32.13231423,-2.996412039,-9.303294182,0.6550351977
32.14231423,-2.97726965,-9.369695663,0.5832505226
32.15231423,-3.05862546,-9.359525681,0.4534398913
32.16231423,-3.077768087,-9.249456406,0.4540380836
32.17231423,-3.07836628,-9.187242508,0.4402793646
32.18231423,-3.073580742,-9.153144836,0.4354937077
32.19231423,-3.087937593,-9.205786705,0.4211367965
32.20231423,-3.07298255,-9.273384094,0.5162515044
32.21231423,-3.063411236,-9.288339615,0.5401797295
32.22231423,-3.034697294,-9.26919651,0.6263213158
32.23231423,-3.029911757,-9.240483284,0.5934200287
32.24231423,-3.001197815,-9.278767586,0.6125625968
32.25231423,-2.910270452,-9.245866776,0.72323066
32.26231423,-2.934198856,-9.270393372,0.7657032609
32.27231423,-2.886342287,-9.260822296,0.7663014531
32.28231423,-2.895913601,-9.29432106,0.7417750359
32.29231423,-2.862414122,-9.269794464,0.72323066
32.30231423,-2.785843849,-9.279366493,0.72323066
32.31231423,-2.709273338,-9.250652313,0.6999006271
32.32231423,-2.694916487,-9.235696793,0.6664010882
32.33231423,-2.714657307,-9.288339615,0.5940182209
32.34231423,-2.747558594,-9.374481201,0.6029912829
32.35231423,-2.795415163,-9.445667267,0.5353940725
32.36231423,-2.84805727,-9.493523598,0.5347958803
32.37231423,-2.882154942,-9.497711182,0.4342973232
32.38231423,-2.944368362,-9.440283775,0.3816552162
32.39231423,-2.968296528,-9.349356651,0.4157529473
32.40231423,-3.001197815,-9.28295517,0.5162515044
32.41231423,-2.972483873,-9.260223389,0.6891329288
32.42231423,-2.991626501,-9.246464729,0.8183453679
32.43231423,-2.986242771,-9.304491043,0.8949156404
32.44231423,-3.024527788,-9.414560318,0.8793623447
32.45231423,-3.02512598,-9.44207859,0.7166503668
32.46231423,-2.924627542,-9.417551994,0.5497509837
32.47231423,-2.853441,-9.401400566,0.3631108403
32.48231423,-2.843869686,-9.348757744,0.3541377485
32.49231423,-2.858226538,-9.339186668,0.3445664644
32.50231423,-2.872583628,-9.321240425,0.4642075896
32.51231423,-2.872583628,-9.297312737,0.5216353536
32.52231423,-2.852842808,-9.321838379,0.5982056856
32.53231423,-2.852842808,-9.317052841,0.650847733
32.54231423,-2.881556749,-9.393623352,0.6311069727
32.55231423,-2.867199659,-9.436694145,0.5832505226
32.56231423,-2.857628345,-9.374481201,0.5688936114
32.57231423,-2.843271494,-9.330811501,0.5407779217
32.58231423,-2.858226538,-9.296713829,0.4450650215
32.59231423,-2.896511793,-9.291928291,0.4498506486
32.60231423,-2.915056229,-9.32662487,0.6029912829
32.61231423,-2.958127022,-9.384052277,0.6263213158
32.62231423,-2.991626501,-9.388837814,0.6209374666
32.63231423,-2.958127022,-9.364909172,0.5688936114
32.64231423,-2.910270452,-9.292527199,0.5120640397
32.65231423,-2.858226538,-9.239884377,0.4839483798
32.66231423,-2.839084148,-9.24407196,0.4504488707
32.67231423,-2.853441,-9.273384094,0.4737788737
32.68231423,-2.891726255,-9.28295517,0.5264210105
32.69231423,-2.876770973,-9.278767586,0.5790630579
32.70231423,-2.924627542,-9.303294182,0.7178468108
32.71231423,-2.996412039,-9.312267303,0.5401797295
32.72231423,-2.948555708,-9.321838379,0.5880361795
32.73231423,-2.895913601,-9.332008362,0.6891329288
32.74231423,-2.876770973,-9.374481201,0.5736792088
32.75231423,-2.871985435,-9.379266739,0.5832505226
32.76231423,-2.852842808,-9.364909172,0.5694918036
32.77231423,-2.776272535,-9.336195946,0.6029912829
32.78231423,-2.785843849,-9.331410408,0.6029912829
32.79231423,-2.809772015,-9.317052841,0.5982056856
32.80231423,-2.785843849,-9.321838379,0.6466603279
32.81231423,-2.819343328,-9.317651749,0.6747759581
32.82231423,-2.871985435,-9.355338097,0.6412764788
32.83231423,-2.915056229,-9.375079155,0.6885347366
32.84231423,-2.948555708,-9.379864693,0.6693921089
32.85231423,-2.991626501,-9.3367939,0.6646065116
32.86231423,-3.001197815,-9.351150513,0.6885347366
32.87231423,-3.03948307,-9.36550808,0.7070791125
32.88231423,-3.07298255,-9.303294182,0.6454638839
32.89231423,-3.010769129,-9.327222824,0.6406782866
32.90231423,-2.991626501,-9.302696228,0.5497509837
32.91231423,-2.967698336,-9.360123634,0.5688936114
32.92231423,-2.895913601,-9.312267303,0.5934200287
32.93231423,-2.83370018,-9.293125153,0.6323033571
32.94231423,-2.809772015,-9.30807972,0.670588553
32.95231423,-2.814557552,-9.256035805,0.7663014531
32.96231423,-2.891128063,-9.298508644,0.7226324677
32.97231423,-2.92941308,-9.303294182,0.6652047038
32.98231423,-2.92941308,-9.312865257,0.6460621357
32.99231423,-2.967698336,-9.370293617,0.6358926296
33.00231423,-2.97726965,-9.373882294,0.5162515044
33.01231423,-2.972483873,-9.364311218,0.4875376225
33.02231423,-2.934198856,-9.34038353,0.5210371017
33.03231423,-2.924627542,-9.317052841,0.626919508
33.04231423,-2.934198856,-9.303294182,0.7274180651
33.05231423,-2.881556749,-9.290133476,0.8566305041
33.06231423,-2.886342287,-9.26142025,0.8620143533
33.07231423,-2.900699139,-9.270393372,0.7944171429
33.08231423,-2.881556749,-9.298508644,0.708275497
33.09231423,-2.862414122,-9.36550808,0.6891329288
33.10231423,-2.915056229,-9.384052277,0.6119644046
33.11231423,-2.919841766,-9.39840889,0.6215356588
33.12231423,-2.910270452,-9.341579437,0.6747759581
33.13231423,-2.919841766,-9.313464165,0.7513462901
33.14231423,-2.948555708,-9.279964447,0.7896314859
33.15231423,-3.015554667,-9.274580956,0.708275497
33.16231423,-2.982055187,-9.298508644,0.708275497
33.17231423,-2.97726965,-9.355937004,0.6502495408
33.18231423,-2.967698336,-9.322437286,0.6502495408
33.19231423,-2.919841766,-9.332008362,0.6699903607
33.20231423,-2.900699139,-9.350552559,0.6358926296
33.21231423,-2.876770973,-9.341579437,0.6652047038
33.22231423,-2.852842808,-9.332008362,0.70348984
33.23231423,-2.881556749,-9.327820778,0.7704889178
33.24231423,-2.938984394,-9.327222824,0.732203722
33.25231423,-2.972483873,-9.312865257,0.693320334
33.26231423,-2.958127022,-9.265008926,0.7130611539
33.27231423,-2.972483873,-9.245866776,0.708275497
33.28231423,-2.953341246,-9.270393372,0.7369893789
33.29231423,-2.982055187,-9.303294182,0.7226324677
33.30231423,-2.958127022,-9.341579437,0.6550351977
33.31231423,-2.934198856,-9.307481766,0.5790630579
33.32231423,-2.871985435,-9.293125153,0.5694918036
33.33231423,-2.84805727,-9.307481766,0.6317051649
33.34231423,-2.886342287,-9.317651749,0.650847733
33.35231423,-2.910270452,-9.30807972,0.6891329288
33.36231423,-2.895913601,-9.265008926,0.7280163169
33.37231423,-2.895913601,-9.255437851,0.6897311211
33.38231423,-2.934198856,-9.327222824,0.6939185858
33.39231423,-2.958127022,-9.360722542,0.6598208547
33.40231423,-2.924627542,-9.327222824,0.650847733
33.41231423,-2.924627542,-9.317651749,0.6699903607
33.42231423,-2.958127022,-9.317651749,0.6598208547
33.43231423,-2.967698336,-9.32662487,0.6167500615
33.44231423,-2.915056229,-9.298508644,0.6460621357
33.45231423,-2.876770973,-9.274580956,0.6747759581
33.46231423,-2.843271494,-9.323633194,0.8853443861
33.47231423,-2.938984394,-9.341579437,0.717248559
33.48231423,-2.862414122,-9.298508644,0.7178468108
33.49231423,-2.828914642,-9.269794464,0.6753742099
33.50231423,-2.824128866,-9.293723106,0.694516778
33.51231423,-2.886342287,-9.321838379,0.6412764788
33.52231423,-2.915056229,-9.332008362,0.6987041831
33.53231423,-2.94377017,-9.407979965,0.6358926296
33.54231423,-2.97726965,-9.341579437,0.6885347366
33.55231423,-2.967698336,-9.360722542,0.7316055298
33.56231423,-2.972483873,-9.342177391,0.745962441
33.57231423,-2.982055187,-9.351150513,0.6646065116
33.58231423,-2.948555708,-9.332008362,0.6598208547
33.59231423,-2.938984394,-9.322437286,0.6987041831
33.60231423,-2.96291256,-9.279366493,0.708275497
33.61231423,-2.919841766,-9.270393372,0.7752745152
33.62231423,-2.905484915,-9.275178909,0.8087740541
33.63231423,-2.924627542,-9.285347939,0.8327022791
33.64231423,-2.92941308,-9.284749985,0.7896314859
33.65231423,-2.910270452,-9.317651749,0.6939185858
33.66231423,-2.92941308,-9.360123634,0.5928218365
33.67231423,-2.953341246,-9.349954605,0.5353940725
33.68231423,-2.938984394,-9.345169067,0.5306084156
33.69231423,-2.895913601,-9.32662487,0.5934200287
33.70231423,-2.924627542,-9.303294182,0.70348984
33.71231423,-2.948555708,-9.318847656,0.837487936
33.72231423,-2.934198856,-9.314062119,0.8614161611
33.73231423,-2.947957516,-9.299705505,0.8614161611
33.74231423,-2.96291256,-9.260822296,0.7657032609
33.75231423,-2.948555708,-9.299106598,0.732203722
33.76231423,-2.92941308,-9.337391853,0.7800601721
33.77231423,-2.900699139,-9.318249702,0.760917604
33.78231423,-2.852842808,-9.279366493,0.7280163169
33.79231423,-2.862414122,-9.327222824,0.7178468108
33.80231423,-2.910270452,-9.332008362,0.6747759581
33.81231423,-2.895913601,-9.317651749,0.6891329288
33.82231423,-2.92941308,-9.284152031,0.732203722
33.83231423,-3.010769129,-9.361320496,0.7268198729
33.84231423,-3.044268608,-9.342177391,0.7220342159
33.85231423,-2.991626501,-9.265607834,0.7513462901
33.86231423,-2.953341246,-9.232108116,0.775872767
33.87231423,-2.972483873,-9.284749985,0.7417750359
33.88231423,-2.97726965,-9.422935486,0.7070791125
33.89231423,-2.97726965,-9.360123634,0.5880361795
33.90231423,-2.900699139,-9.331410408,0.5742774606
33.91231423,-2.886342287,-9.245268822,0.6227321029
33.92231423,-2.910270452,-9.231510162,0.7088736892
33.93231423,-2.895913601,-9.265607834,0.775872767
33.94231423,-2.915056229,-9.337990761,0.8327022791
33.95231423,-2.94377017,-9.32303524,0.7896314859
33.96231423,-2.910270452,-9.236893654,0.8093722463
33.97231423,-2.919841766,-9.269794464,0.70348984
33.98231423,-2.934198856,-9.340981483,0.6071787477
33.99231423,-2.910270452,-9.364909172,0.6167500615
34.00231423,-2.891128063,-9.370293617,0.6454638839
34.01231423,-2.891128063,-9.350552559,0.6125625968
34.02231423,-2.910270452,-9.3367939,0.6556333899
34.03231423,-2.924627542,-9.327222824,0.7178468108
34.04231423,-2.96291256,-9.289535522,0.7800601721
34.05231423,-2.948555708,-9.256634712,0.8279166222
34.06231423,-2.924627542,-9.247062683,0.8380861282
34.07231423,-2.94377017,-9.260822296,0.7992027402
34.08231423,-2.938984394,-9.312865257,0.708275497
34.09231423,-2.934198856,-9.370293617,0.6741777658
34.10231423,-2.915056229,-9.379266739,0.6167500615
34.11231423,-2.910270452,-9.364909172,0.5976074338
34.12231423,-2.924627542,-9.336195946,0.5736792088
34.13231423,-2.92941308,-9.303294182,0.6891329288
34.14231423,-2.915056229,-9.29432106,0.7944171429
34.15231423,-2.938984394,-9.275178909,0.8183453679
34.16231423,-2.92941308,-9.279964447,0.8231309652
34.17231423,-2.915056229,-9.289535522,0.8279166222
34.18231423,-2.934198856,-9.303893089,0.7752745152
34.19231423,-2.948555708,-9.308678627,0.7369893789
34.20231423,-2.94377017,-9.322437286,0.6891329288
34.21231423,-2.958127022,-9.332008362,0.693320334
34.22231423,-2.972483873,-9.370293617,0.7076773047
34.23231423,-2.986840963,-9.379864693,0.6741777658
34.24231423,-2.967698336,-9.327222824,0.6837490797
34.25231423,-2.958127022,-9.337391853,0.7555337548
34.26231423,-2.934198856,-9.303893089,0.7752745152
34.27231423,-2.924627542,-9.256035805,0.7896314859
34.28231423,-2.905484915,-9.236893654,0.7663014531
34.29231423,-2.910270452,-9.246464729,0.775872767
34.30231423,-2.967698336,-9.303294182,0.6987041831
34.31231423,-2.986840963,-9.374481201,0.5832505226
34.32231423,-2.96291256,-9.345767021,0.6167500615
34.33231423,-2.915056229,-9.341579437,0.6406782866
34.34231423,-2.905484915,-9.332008362,0.6843472719
34.35231423,-2.910270452,-9.298508644,0.6843472719
34.36231423,-2.867199659,-9.265607834,0.7423732281
34.37231423,-2.867199659,-9.241081238,0.7328019142
34.38231423,-2.900699139,-9.245866776,0.6849454641
34.39231423,-2.953341246,-9.293125153,0.6317051649
34.40231423,-2.967698336,-9.36550808,0.6358926296
34.41231423,-2.953341246,-9.36550808,0.6502495408
34.42231423,-2.934198856,-9.364909172,0.6119644046
34.43231423,-2.915056229,-9.36550808,0.6693921089
34.44231423,-2.915056229,-9.36550808,0.6693921089
34.45231423,-2.84805727,-9.270393372,0.7902296782
34.46231423,-2.871985435,-9.313464165,0.7657032609
34.47231423,-2.876770973,-9.317651749,0.732203722
34.48231423,-2.871985435,-9.32303524,0.8039883971
34.49231423,-2.895913601,-9.346364975,0.7274180651
34.50231423,-2.900699139,-9.404391289,0.8129615188
34.51231423,-2.881556749,-9.356534958,0.7800601721
34.52231423,-2.862414122,-9.30807972,0.7130611539
34.53231423,-2.905484915,-9.342177391,0.7465606928
34.54231423,-2.967698336,-9.35174942,0.7507480979
34.55231423,-2.958127022,-9.332606316,0.745962441
34.56231423,-2.958127022,-9.303294182,0.7274180651
34.57231423,-2.958127022,-9.293723106,0.7226324677
34.58231423,-2.991626501,-9.317651749,0.7076773047
34.59231423,-2.967698336,-9.318249702,0.7800601721
34.60231423,-2.938984394,-9.299106598,0.813559711
34.61231423,-2.900699139,-9.337391853,0.8279166222
34.62231423,-2.891128063,-9.356534958,0.7417750359
34.63231423,-2.886342287,-9.375677109,0.745962441
34.64231423,-2.92941308,-9.35174942,0.7507480979
34.65231423,-2.982055187,-9.332606316,0.7794619799
34.66231423,-3.001197815,-9.275178909,0.8087740541
34.67231423,-2.991028309,-9.26142025,0.8327022791
34.68231423,-3.005983353,-9.275178909,0.8087740541
34.69231423,-3.062813044,-9.29432106,0.7890332937
34.70231423,-3.044268608,-9.303893089,0.7890332937
34.71231423,-2.991626501,-9.303893089,0.8039883971
34.72231423,-2.953341246,-9.318249702,0.7657032609
34.73231423,-2.92941308,-9.322437286,0.6891329288
34.74231423,-2.924627542,-9.384052277,0.6263213158
34.75231423,-2.915056229,-9.32662487,0.6317051649
34.76231423,-2.876770973,-9.35174942,0.7513462901
34.77231423,-2.881556749,-9.35174942,0.8231309652
34.78231423,-2.866601467,-9.338588715,0.94277215
34.79231423,-2.842673302,-9.338588715,0.94277215
34.80231423,-2.857030153,-9.294919968,0.9050851464
34.81231423,-2.819343328,-9.304491043,0.8620143533
34.82231423,-2.857628345,-9.313464165,0.813559711
34.83231423,-2.900699139,-9.303893089,0.7513462901
34.84231423,-2.910270452,-9.312865257,0.6987041831
34.85231423,-2.905484915,-9.307481766,0.6077769399
34.86231423,-2.92941308,-9.292527199,0.5407779217
34.87231423,-2.958127022,-9.32662487,0.5928218365
34.88231423,-3.010769129,-9.3367939,0.6311069727
34.89231423,-3.03948307,-9.3367939,0.7076773047
34.90231423,-3.05862546,-9.380462646,0.7501499057
34.91231423,-3.077768087,-9.385248184,0.7597211599
34.92231423,-3.081955671,-9.375677109,0.7884350419
34.93231423,-3.082553864,-9.337391853,0.7794619799
34.94231423,-3.03888464,-9.318847656,0.8368897438
34.95231423,-3.00538516,-9.290133476,0.8566305041
34.96231423,-2.991028309,-9.280562401,0.8614161611
34.97231423,-2.967100143,-9.299705505,0.8805587292
34.98231423,-2.919841766,-9.342177391,0.7465606928
34.99231423,-2.92941308,-9.403793335,0.7124629617
35.00231423,-2.934198856,-9.44207859,0.6975077987
35.01231423,-2.953341246,-9.446265221,0.5922235847
35.02231423,-2.96291256,-9.469595909,0.5108676553
35.03231423,-3.010769129,-9.483952522,0.4480560422
35.04231423,-3.044268608,-9.48873806,0.5150550604
35.05231423,-3.07298255,-9.494122505,0.5964110494
35.06231423,-3.077768087,-9.522835732,0.5335994363
35.07231423,-3.059223652,-9.473783493,0.3475574851
35.08231423,-3.068794966,-9.377471924,0.2524427772
35.09231423,-3.006581545,-9.281160355,0.1764706671
35.10231423,-2.921038151,-9.20399189,0.1244267747
35.11231423,-2.897109985,-9.136395454,0.0580259487
35.12231423,-2.887538671,-9.08435154,0.1256231815
35.13231423,-2.848655462,-9.084949493,0.2691925466
35.14231423,-2.824727058,-9.138788223,0.3792623878
35.15231423,-2.743371248,-9.101100922,0.5234299302
35.16231423,-2.681157827,-9.073583603,0.6915257573
35.17231423,-2.675773859,-8.984451294,0.9888339639
35.18231423,-2.708675146,-9.052047729,1.127019525
35.19231423,-2.852244616,-9.129216194,1.174277663
35.20231423,-2.895315409,-9.196813583,1.221535921
35.21231423,-2.947359324,-9.249456406,1.240080357
35.22231423,-2.909074068,-9.202198029,1.341177106
35.23231423,-2.837289333,-9.072985649,1.409372568
35.24231423,-2.832503796,-8.98803997,1.529611826
35.25231423,-2.765504837,-8.945567131,1.697707653
35.26231423,-2.708076954,-8.946166039,1.755135417
35.27231423,-2.669791937,-8.964112282,1.597209096
35.28231423,-2.679363251,-8.839086533,1.497308731
35.29231423,-2.846860647,-8.716454506,1.718046665
35.30231423,-3.132802963,-8.63390255,2.258226395
35.31231423,-3.351746321,-8.468797684,2.656033039
35.32231423,-3.547957659,-8.441878319,2.851646423
35.33231423,-3.5766716,-8.470592499,2.875574589
35.34231423,-3.433700562,-8.482556343,2.554936409
35.35231423,-3.23330164,-8.547760963,2.253440619
35.36231423,-2.88454771,-8.569295883,1.905285001
35.37231423,-2.47358036,-8.505288124,1.686939955
35.38231423,-2.096112728,-8.413763046,1.64626193
35.39231423,-1.871187329,-8.50110054,1.842473388
35.40231423,-1.875374794,-8.713463783,2.200200319
35.41231423,-1.917847395,-8.830712318,2.544168711
35.42231423,-2.027318954,-8.827122688,2.740380049
35.43231423,-2.199602127,-8.866005898,2.76311183
35.44231423,-2.33300209,-8.966505051,2.781058073
35.45231423,-2.500499725,-9.220742226,2.784049034
35.46231423,-2.504687071,-9.336195946,2.935993433
35.47231423,-2.629113913,-9.212367058,3.037090063
35.48231423,-2.547757864,-8.979066849,3.177668571
35.49231423,-2.384447813,-8.58006382,3.655036688
35.50231423,-2.378465652,-8.373682976,4.360321045
35.51231423,-2.48793745,-8.280961037,4.863411903
35.52231423,-2.486740828,-8.227122307,5.390431404
35.53231423,-2.553740025,-8.255238533,5.279763222
35.54231423,-2.478964329,-8.211568832,4.475774765
35.55231423,-2.570489645,-8.419146538,3.942773581
35.56231423,-2.498705149,-8.599804878,3.798007727
35.57231423,-2.388635159,-8.590831757,3.903890133
35.58231423,-2.388635159,-8.438887596,4.110869408
35.59231423,-2.71824646,-8.28155899,4.158127785
35.60231423,-2.565704107,-8.057231903,4.203591347
35.61231423,-2.311466694,-7.867600918,4.521836758
35.62231423,-2.163111687,-7.734799385,4.82034111
35.63231423,-2.167299032,-7.47398138,5.181059361
35.64231423,-2.492722988,-7.124031067,5.052444935
35.65231423,-2.636292458,-6.482754707,5.032105923
35.66231423,-2.693720102,-6.837490559,5.091926575
35.67231423,-2.612364054,-7.034300327,5.191228867
35.68231423,-2.731407166,-6.993024349,5.497509956
35.69231423,-2.80259347,-6.56470871,5.859424591
35.70231423,-2.806781054,-6.25543642,6.095715523
35.71231423,-2.635095835,-6.31226635,6.03888607
35.72231423,-2.635694027,-6.332605362,5.468796253
35.73231423,-2.827120066,-6.906284332,5.325825214
35.74231423,-3.118446112,-7.008577347,5.644668579
35.75231423,-2.926422119,-6.896114826,5.981458187
35.76231423,-2.480758905,-6.34875679,6.580262184
35.77231423,-2.528615236,-5.882156372,6.865606308
35.78231423,-2.567498684,-4.627120972,6.744170666
35.79231423,-2.190030813,-5.520241737,6.467201233
35.80231423,-2.06560421,-6.135795593,6.175875187
35.81231423,-2.199602127,-6.5790658,5.957530022
35.82231423,-2.233101845,-6.56530714,5.976672649
35.83231423,-1.673779488,-6.608377934,6.098108292
35.84231423,-1.620539188,-6.811169624,6.345765591
35.85231423,-1.533201098,-6.346364021,7.02951479
35.86231423,-1.475175142,-5.617749214,7.594220638
35.87231423,-1.613958836,-5.742774487,7.67916584
35.88231423,-1.795813441,-6.02752018,7.293323517
35.89231423,-2.198405743,-5.968895912,7.086344242
35.90231423,-2.541775942,-6.099903107,7.275975227
35.91231423,-2.594418049,-4.877170563,7.637889862
35.92231423,-2.738585472,-4.29750967,7.588238716
35.93231423,-2.90967226,-4.430311203,8.094321251
35.94231423,-2.909074068,-4.379463673,8.434700012
35.95231423,-2.971287489,-4.62891531,8.47597599
35.96231423,-3.004786968,-4.451248169,8.386244774
35.97231423,-3.330210924,-4.503890514,8.307880402
35.98231423,-2.955734253,-4.182653904,9.038887978
35.99231423,-2.539981127,-3.858426571,9.263215065
36.00231423,-2.761317253,-3.614358664,8.535796165
36.01231423,-2.890529871,-3.401995659,8.225327492
36.02231423,-2.621337175,-3.412763357,9.227322578
36.03231423,-2.688934565,-3.61615324,8.79960537
36.04231423,-2.449652195,-3.693321705,8.962915421
36.05231423,-2.209771633,-3.457030535,9.386445045
36.06231423,-2.520240545,-2.564507723,9.740582466
36.07231423,-2.735594511,-2.416152716,9.721440315
36.08231423,-2.961117983,-2.266601324,9.520442963
36.09231423,-2.91804719,-2.113460541,9.564710617
36.10231423,-2.851048231,-1.711466432,9.56770134
36.11231423,-2.525624275,-0.956530869,9.808179855
36.12231423,-2.449054003,-1.182652593,9.993623734
36.13231423,-2.35274291,-1.169492126,10.1904335
36.14231423,-2.581855536,-1.118644595,10.42014408
36.15231423,-2.256431818,-0.837487936,10.66720295
