Time (s),Gyroscope x (rad/s),Gyroscope y (rad/s),Gyroscope z (rad/s)
12.28545403,0.0719293803,-0.6733261943,-0.04902193695
12.29545403,0.1350012124,-0.6015495658,-0.05115996301
12.30545403,0.2148718536,-0.4853324294,-0.06414084882
12.31545403,0.2267837226,-0.3417791128,-0.0731511116
12.32545403,0.1753183305,-0.2467895597,-0.06643159688
12.33545403,0.1266018152,-0.1663080603,-0.06597344577
12.34545403,0.08888089657,-0.07849618047,-0.06902777404
12.35545403,0.07605272532,-0.03313944116,-0.08582656831
12.36545403,0.07330382615,-0.009926560335,-0.08567385375
12.37545403,0.06582073122,0.002290744567,-0.08078692853
12.38545403,0.05192354694,0.04505131021,-0.07803803682
12.39545403,0.03268129006,0.1098030284,-0.07528914511
12.40545403,0.02107485011,0.1672243625,-0.07742717117
12.41545403,-0.008399397135,0.1681406647,-0.084604837
12.42545403,-0.02092213556,0.1913535446,-0.1015563458
12.43545403,-0.01023199316,0.2148718536,-0.1186605766
12.44545403,0.007177666761,0.196698606,-0.1235474944
12.45545403,0.01756237634,0.1527163088,-0.123852931
12.46545403,0.01572977938,0.09010262042,-0.1168279797
12.47545403,0.01145372353,0.03985895589,-0.1159116775
12.48545403,0.007941247895,0.0201585535,-0.1172861308
12.49545403,-0.01786780916,0.01496619824,-0.1183551401
12.50545403,-0.04382958263,0.03436116874,-0.1255328059
12.51545403,-0.06505715102,0.07101308554,-0.1290452778
12.52545403,-0.06918048859,0.1101084575,-0.1215621829
12.53545403,-0.05146539584,0.1739438772,-0.1114829108
12.54545403,-0.03207042441,0.204639852,-0.08200865984
12.55545403,-0.009926560335,0.2023491114,-0.06490442902
12.56545403,0.003665191587,0.1866193265,-0.06872233748
12.57545403,0.0251981914,0.2396118939,-0.08185594529
12.58545403,0.04566217586,0.2779437006,-0.08903361112
12.59545403,0.02993239649,0.2556470931,-0.08185594529
12.60545403,-0.006414085161,0.2110539377,-0.06856962293
12.61545403,-0.04398229718,0.1640173197,-0.0613919571
12.62545403,-0.07620543987,0.08139779419,-0.05207626149
12.63545403,-0.09361509979,-0.009468411095,-0.04642575979
12.64545403,-0.1032362282,-0.03176499158,-0.04398229718
12.65545403,-0.09483683109,-0.01695151068,-0.04031710699
12.66545403,-0.07773260027,-0.00320704258,-0.05497787148
12.67545403,-0.05574145541,0.008093964309,-0.05864306539
12.68545403,-0.04001167417,0.02428189293,-0.05604688451
12.69545403,-0.04398229718,0.05482515693,-0.05833763257
12.70545403,-0.05925392732,0.1087340117,-0.07513642311
12.71545403,-0.07101308554,0.1624901593,-0.07727445662
12.72545403,-0.1030835137,0.1792889535,-0.06368270516
12.73545403,-0.1351539344,0.1948660165,-0.05375614017
12.74545403,-0.157145083,0.184634015,-0.0232128799
12.75545403,-0.1710422635,0.1156062484,0.008093964309
12.76545403,-0.1754710376,0.06276640296,0.01756237634
12.77545403,-0.1542434692,0.03970624134,0.02229658142
12.78545403,-0.1194241568,-0.002901609987,0.02565634064
12.79545403,-0.07345654815,-0.05757404864,0.03268129006
12.80545403,0.01679879427,0.1113301888,0.03711006418
12.81545403,0.09789115191,0.2287690341,0.03145955876
12.82545403,0.03405573592,-0.00122173049,0.03405573592
12.83545403,-0.03344487399,-0.1148426682,0.04077525437
12.84545403,-0.05100724846,-0.08429940045,0.0410806872
12.85545403,-0.05268712714,-0.04138612002,0.03268129006
12.86545403,-0.04566217586,-0.005650503561,0.02672535367
12.87545403,-0.0251981914,0.02153299935,0.01588249579
12.88545403,-0.01282817032,0.01069014147,0.0109955743
12.89545403,-0.01206458826,-0.05787948146,0.001985311974
12.90545403,-0.009468411095,-0.07376197726,-0.002901609987
12.91545403,-0.005955935922,-0.054061573,-0.007788531948
12.92545403,0.03833179548,0.1695151031,-0.007788531948
12.93545403,0.03909537569,0.09468411654,-0.004581489135
12.94545403,0.006108652335,-0.0282525178,0.005803219974
12.95545403,-0.0160352122,-0.02122756653,0.01695151068
12.96545403,-0.0201585535,0.008093964309,0.01588249579
12.97545403,-0.01466076635,0.0731511116,0.01496619824
12.98545403,-0.01130100712,0.1075122803,0.01023199316
12.99545403,-0.002596177394,0.08933904022,0.005192354787
13.00545403,0.003970623948,0.05390885845,-0.002290744567
13.01545403,0.008552113548,0.07849618047,-0.007024950348
13.02545403,0.01466076635,0.08827003092,-0.008246680722
13.03545403,0.01542434748,0.1262963861,-0.01282817032
13.04545403,0.04550946131,0.1843285859,-0.007788531948
13.05545403,0.01924225502,0.006261368748,-0.007483099122
13.06545403,-0.02840523422,-0.1389718503,-0.008093964309
13.07545403,-0.04031710699,-0.1722639948,-0.0009162978968
13.08545403,-0.0282525178,-0.1501201391,0.003970623948
13.09545403,-0.02107485011,-0.1255328059,0.007788531948
13.10545403,-0.01420261711,-0.08002334833,0.01053742506
13.11545403,-0.01114829071,-0.03222314268,0.01191187184
13.12545403,-0.01359175146,-0.02367102914,0.009621127509
13.13545403,-0.01359175146,-0.02122756653,0.009621127509
13.14545403,-0.01237002108,-0.02122756653,0.01084285788
13.15545403,-0.005039638374,-0.01985312067,0.009621127509
13.16545403,-0.002748893574,-0.01496619824,0.005955935922
13.17545403,-0.007635815535,-0.01374446787,0.004734205548
13.18545403,-0.01007927675,-0.01740965992,0.002290744567
13.19545403,-0.009926560335,-0.02107485011,0.002290744567
13.20545403,-0.008857546374,-0.01130100712,0.003512475174
13.21545403,-0.006414085161,-0.007635815535,0.003512475174
13.22545403,-0.005192354787,-0.01374446787,0.002290744567
13.23545403,-0.002901609987,0.003512475174,-0.0001527163113
13.24545403,0.0004581489484,0.03909537569,0.001374446787
13.25545403,0.006414085161,0.05268712714,-0.001069014193
13.26545403,0.01114829071,0.06979135424,-0.003359758761
13.27545403,0.01343903504,0.08704829961,-0.0009162978968
13.28545403,0.008552113548,0.08582656831,-0.0009162978968
13.29545403,0.003665191587,0.07590000331,-0.003359758761
13.30545403,0.001374446787,0.06246097013,-0.005955935922
13.31545403,0.002748893574,0.04276056588,-0.004734205548
13.32545403,0.004123340361,0.03176499158,-0.007330383174
13.33545403,0.009162978269,0.03069597855,-0.009773843922
13.34545403,0.01267545391,0.03313944116,-0.01221730467
13.35545403,0.01023199316,0.03802636266,-0.01206458826
13.36545403,0.009010262787,0.03924809024,-0.01817324013
13.37545403,0.01756237634,0.0369573459,-0.02687807009
13.38545403,0.02244929783,0.0430659987,-0.01939497143
13.39545403,0.01756237634,0.04169155285,-0.002290744567
13.40545403,-0.0009162978968,0.04764748737,0.007483099122
13.41545403,-0.005955935922,0.05726861581,0.01847867295
13.42545403,-0.01542434748,0.02535090782,0.0232128799
13.43545403,-0.02275473066,0.02275473066,0.01954768784
13.44545403,-0.01786780916,0.02901609987,0.01832595654
13.45545403,-0.006872233935,0.02901609987,0.0171042271
13.46545403,-0.004276056774,0.02550362423,0.01588249579
13.47545403,-0.0006108652451,0.02061670274,0.01343903504
13.48545403,0.001832595794,0.02672535367,0.0109955743
13.49545403,0.0006108652451,0.02183843218,0.01221730467
13.50545403,-0.004276056774,0.01450804994,0.01221730467
13.51545403,-0.007941247895,0.01679879427,0.009773843922
13.52545403,-0.01160643995,0.0155770639,0.007330383174
13.53545403,-0.01145372353,0.008246680722,0.006108652335
13.54545403,-0.01267545391,0.007024950348,0.00244346098
13.55545403,-0.009162978269,0.02183843218,-0.00122173049
13.56545403,-0.006719517522,0.01695151068,-0.00122173049
13.57545403,-0.007941247895,0.02061670274,-0.006108652335
13.58545403,-0.006719517522,0.01450804994,-0.008552113548
13.59545403,-0.004123340361,0.007177666761,-0.0109955743
13.60545403,-0.005345070735,0.009621127509,-0.0109955743
13.61545403,-0.005345070735,0.008399397135,-0.0109955743
13.62545403,-0.007788531948,0.007177666761,-0.009773843922
13.63545403,-0.007788531948,-0.0001527163113,-0.006261368748
13.64545403,-0.007635815535,-0.008857546374,-0.005039638374
13.65545403,-0.005192354787,-0.007483099122,-0.006261368748
13.66545403,-0.001527163084,-0.005039638374,-0.005039638374
13.67545403,-0.00167987938,-0.0001527163113,-0.006261368748
13.68545403,-0.001832595794,0.01450804994,-0.007330383174
13.69545403,0.002901609987,0.03054326214,-0.007330383174
13.70545403,0.01160643995,0.02565634064,-0.003665191587
13.71545403,0.01527163107,0.02580905706,-0.00244346098
13.72545403,0.0190895386,0.01847867295,-0.00244346098
13.73545403,0.01786780916,0.007330383174,-0.003817907767
13.74545403,0.02046398632,0.0,-0.002596177394
13.75545403,0.01924225502,0.00122173049,-0.003817907767
13.76545403,0.01924225502,0.001374446787,-0.007483099122
13.77545403,0.02275473066,0.01114829071,-0.006261368748
13.78545403,0.0239764601,0.01114829071,-0.007483099122
13.79545403,0.01664607786,0.01725694351,-0.008552113548
13.80545403,0.01298088674,0.01847867295,-0.007330383174
13.81545403,0.01175915636,0.01343903504,-0.007330383174
13.82545403,0.01053742506,0.007330383174,-0.007483099122
13.83545403,0.01069014147,0.00122173049,-0.006261368748
13.84545403,0.01191187184,-0.006108652335,-0.006261368748
13.85545403,0.01206458826,-0.01466076635,-0.003817907767
13.86545403,0.009621127509,-0.01970040426,-0.003970623948
13.87545403,0.007177666761,-0.01847867295,-0.003817907767
13.88545403,-0.0001527163113,-0.02474004216,-0.001527163084
13.89545403,-0.006261368748,-0.02596177347,0.0009162978968
13.90545403,-0.009926560335,-0.02596177347,0.0009162978968
13.91545403,-0.008704829961,-0.01863138936,0.002290744567
13.92545403,-0.005192354787,-0.007635815535,0.004734205548
13.93545403,-0.002901609987,0.003512475174,0.003512475174
13.94545403,-0.004123340361,0.007177666761,0.004886921961
13.95545403,-0.002901609987,0.003512475174,0.004734205548
13.96545403,-0.004123340361,0.01084285788,0.003665191587
13.97545403,-0.0004581489484,0.01084285788,0.004886921961
13.98545403,0.003054326167,0.01817324013,0.003665191587
13.99545403,0.005497787148,0.01832595654,0.004886921961
14.00545403,0.005650503561,0.01588249579,0.00244346098
14.01545403,0.001985311974,0.007177666761,0.001069014193
14.02545403,-0.00167987938,0.003512475174,-0.001374446787
14.03545403,-0.00167987938,0.004734205548,-0.002596177394
14.04545403,-0.004123340361,-0.001374446787,-0.002596177394
14.05545403,-0.006414085161,-0.006414085161,-0.003817907767
14.06545403,-0.005192354787,-0.01618792862,-0.002596177394
14.07545403,-0.001374446787,-0.01847867295,-0.003817907767
14.08545403,0.001069014193,-0.0270307865,-0.003970623948
14.09545403,-0.0001527163113,-0.02718350291,-0.003970623948
14.10545403,-0.003817907767,-0.02718350291,-0.001527163084
14.11545403,-0.002596177394,-0.02351831272,-0.001527163084
14.12545403,-0.002596177394,-0.01863138936,-0.0001527163113
14.13545403,-0.003970623948,-0.0125227375,0.001069014193
14.14545403,-0.007635815535,-0.01496619824,0.003512475174
14.15545403,-0.008857546374,-0.007635815535,0.005955935922
14.16545403,-0.01023199316,-0.001527163084,0.005955935922
14.17545403,-0.006566801574,0.004581489135,0.008399397135
14.18545403,-0.005345070735,0.002138028387,0.007177666761
14.19545403,-0.006414085161,-0.005192354787,0.008399397135
14.20545403,-0.007635815535,-0.007635815535,0.009621127509
14.21545403,-0.003970623948,-0.003970623948,0.009621127509
14.22545403,-0.003970623948,-0.008857546374,0.01084285788
14.23545403,-0.002596177394,-0.02718350291,0.009468411095
14.24545403,-0.00122173049,-0.04199698567,0.01069014147
14.25545403,-0.004734205548,-0.05543602258,0.01053742506
14.26545403,0.0001527163113,-0.04550946131,0.01069014147
14.27545403,0.003665191587,-0.03329215571,0.008246680722
14.28545403,-0.001374446787,-0.02840523422,0.009468411095
14.29545403,-0.006261368748,-0.01863138936,0.008399397135
14.30545403,-0.003817907767,-0.01985312067,0.008399397135
14.31545403,-0.007635815535,-0.0125227375,0.008399397135
14.32545403,-0.006414085161,-0.01496619824,0.008399397135
14.33545403,-0.005192354787,-0.007635815535,0.008399397135
14.34545403,-0.00167987938,-0.0001527163113,0.005955935922
14.35545403,-0.00167987938,0.008399397135,0.004886921961
14.36545403,-0.0004581489484,0.003512475174,0.003512475174
14.37545403,0.002138028387,-0.002596177394,0.003512475174
14.38545403,-0.00167987938,-0.0001527163113,0.001069014193
14.39545403,0.001985311974,0.01328631863,-0.00244346098
14.40545403,0.004276056774,0.01954768784,-0.004886921961
14.41545403,0.005497787148,0.0171042271,-0.004886921961
14.42545403,0.00320704258,0.01343903504,-0.007330383174
14.43545403,0.003054326167,0.01832595654,-0.008552113548
14.44545403,0.004276056774,0.01588249579,-0.009773843922
14.45545403,0.005650503561,0.01466076635,-0.01221730467
14.46545403,0.006719517522,0.0171042271,-0.01221730467
14.47545403,0.009162978269,0.01832595654,-0.01221730467
14.48545403,0.007941247895,0.0232128799,-0.01221730467
14.49545403,0.009162978269,0.03069597855,-0.01221730467
14.50545403,0.01145372353,0.03558290005,-0.01221730467
14.51545403,0.01038470957,0.02947424725,-0.01221730467
14.52545403,0.008093964309,0.01588249579,-0.008552113548
14.53545403,0.001985311974,0.004734205548,-0.006261368748
14.54545403,0.001985311974,0.004734205548,-0.006261368748
14.55545403,-0.006414085161,-0.003970623948,-0.001374446787
14.56545403,-0.006566801574,-0.002748893574,0.001069014193
14.57545403,-0.005345070735,-0.001527163084,0.003512475174
14.58545403,-0.005497787148,0.01328631863,0.004886921961
14.59545403,-0.001832595794,0.01695151068,0.007330383174
14.60545403,-0.002901609987,0.009468411095,0.0109955743
14.61545403,-0.004276056774,0.02306016348,0.01221730467
14.62545403,-0.003054326167,0.01695151068,0.01221730467
14.63545403,-0.007788531948,0.007024950348,0.01206458826
14.64545403,-0.01145372353,0.0009162978968,0.01084285788
14.65545403,-0.01145372353,0.003359758761,0.008399397135
14.66545403,-0.01038470957,0.01191187184,0.008552113548
14.67545403,-0.007941247895,0.01191187184,0.008552113548
14.68545403,-0.005497787148,0.01191187184,0.008552113548
14.69545403,-0.005497787148,0.01328631863,0.006108652335
14.70545403,-0.007788531948,0.004581489135,0.003512475174
14.71545403,-0.009010262787,-0.0003054326226,0.002290744567
14.72545403,-0.007788531948,0.002138028387,-0.0001527163113
14.73545403,-0.006566801574,0.002290744567,-0.003817907767
14.74545403,-0.009010262787,-0.002748893574,-0.005039638374
14.75545403,-0.01023199316,-0.002748893574,-0.006261368748
14.76545403,-0.005345070735,0.003512475174,-0.009926560335
14.77545403,-0.004123340361,0.003512475174,-0.009926560335
14.78545403,-0.0004581489484,0.008399397135,-0.008552113548
14.79545403,0.0007635815418,0.01084285788,-0.007330383174
14.80545403,0.0006108652451,0.0171042271,-0.006108652335
14.81545403,0.003054326167,0.0171042271,-0.004886921961
14.82545403,0.0007635815418,0.001069014193,-0.002596177394
14.83545403,-0.0003054326226,-0.003817907767,-0.003817907767
14.84545403,-0.002748893574,-0.0125227375,-0.001374446787
14.85545403,0.0009162978968,-0.009926560335,-0.001374446787
14.86545403,0.003512475174,-0.01481348183,-0.001374446787
14.87545403,0.004581489135,-0.007483099122,-0.0001527163113
14.88545403,0.002138028387,-0.001374446787,-0.0001527163113
14.89545403,0.005650503561,0.01221730467,0.00122173049
14.90545403,0.001985311974,0.009621127509,0.00122173049
14.91545403,0.0007635815418,0.005955935922,0.001069014193
14.92545403,-0.00167987938,0.005955935922,0.001069014193
14.93545403,-0.0003054326226,-0.001374446787,-0.0001527163113
14.94545403,-0.0003054326226,-0.007483099122,-0.001374446787
14.95545403,-0.0003054326226,-0.002596177394,-0.005039638374
14.96545403,-0.0004581489484,0.004734205548,-0.003817907767
14.97545403,-0.00167987938,-0.001374446787,-0.003817907767
14.98545403,-0.006414085161,-0.007635815535,-0.005039638374
14.99545403,-0.01023199316,-0.002748893574,-0.006261368748
15.00545403,-0.01145372353,-0.003970623948,-0.006261368748
15.01545403,-0.01130100712,-0.01007927675,-0.008704829961
15.02545403,-0.01007927675,-0.006414085161,-0.007483099122
15.03545403,-0.008857546374,-0.008857546374,-0.005039638374
15.04545403,-0.008857546374,-0.01740965992,-0.003817907767
15.05545403,-0.008857546374,-0.01740965992,-0.002596177394
15.06545403,-0.005192354787,-0.01374446787,-0.002596177394
15.07545403,-0.001527163084,-0.01481348183,-0.0001527163113
15.08545403,-0.001527163084,-0.003817907767,-0.0001527163113
15.09545403,-0.001527163084,-0.008704829961,0.002290744567
15.10545403,-0.003970623948,-0.007635815535,0.002290744567
15.11545403,-0.0003054326226,-0.002596177394,0.003512475174
15.12545403,-0.0003054326226,-0.002596177394,0.004734205548
15.13545403,0.001985311974,0.004734205548,0.005955935922
15.14545403,0.0009162978968,-0.0001527163113,0.007177666761
15.15545403,0.0007635815418,0.002290744567,0.005955935922
15.16545403,0.00320704258,0.007177666761,0.005955935922
15.17545403,0.0007635815418,0.01084285788,0.006108652335
15.18545403,-0.0004581489484,0.004734205548,0.005955935922
15.19545403,-0.0003054326226,-0.003817907767,0.005955935922
15.20545403,0.0009162978968,-0.01374446787,0.004734205548
15.21545403,0.003512475174,-0.02107485011,0.004581489135
15.22545403,0.001069014193,-0.02474004216,0.002138028387
15.23545403,0.0,-0.03573561832,0.002138028387
15.24545403,-0.00122173049,-0.03084869497,0.002138028387
15.25545403,-0.002596177394,-0.02351831272,0.0009162978968
15.26545403,-0.009926560335,-0.02718350291,-0.001527163084
15.27545403,-0.01007927675,-0.01863138936,-0.001374446787
15.28545403,-0.007941247895,0.01328631863,-0.003665191587
15.29545403,0.0004581489484,0.03298672289,-0.00122173049
15.30545403,0.001527163084,0.05497787148,0.001374446787
15.31545403,-0.003054326167,0.01328631863,0.004886921961
15.32545403,-0.002748893574,-0.01374446787,0.003512475174
15.33545403,-0.003817907767,-0.02351831272,0.003359758761
15.34545403,0.003512475174,-0.01481348183,0.004734205548
15.35545403,0.005803219974,-0.009926560335,0.003512475174
15.36545403,-0.0003054326226,-0.008704829961,0.003512475174
15.37545403,0.004428773187,0.005955935922,0.003512475174
15.38545403,0.005650503561,0.004734205548,0.002290744567
15.39545403,0.005650503561,0.0109955743,0.00122173049
15.40545403,0.01160643995,0.0232128799,-0.0
15.41545403,0.01023199316,0.03313944116,-0.00244346098
15.42545403,0.01023199316,0.04169155285,-0.002290744567
15.43545403,0.01023199316,0.03313944116,-0.004886921961
15.44545403,0.006872233935,0.01221730467,-0.004886921961
15.45545403,0.004428773187,0.00122173049,-0.007483099122
15.46545403,0.001985311974,0.003512475174,-0.007483099122
15.47545403,-0.002748893574,-0.008704829961,-0.009926560335
15.48545403,-0.005192354787,-0.01114829071,-0.008704829961
15.49545403,-0.003970623948,-0.01114829071,-0.007483099122
15.50545403,-0.004123340361,0.001069014193,-0.007483099122
15.51545403,-0.004276056774,0.01328631863,-0.007330383174
15.52545403,-0.005497787148,0.01328631863,-0.003665191587
15.53545403,-0.005345070735,0.01084285788,-0.00244346098
15.54545403,-0.001832595794,0.01450804994,-0.00244346098
15.55545403,0.00320704258,0.01328631863,-0.00122173049
15.56545403,-0.0004581489484,0.008399397135,-0.00122173049
15.57545403,0.0007635815418,0.01206458826,-0.0
15.58545403,-0.001832595794,0.01572977938,0.00244346098
15.59545403,0.001985311974,0.01084285788,0.003665191587
15.60545403,-0.0004581489484,0.009621127509,0.004886921961
15.61545403,0.0007635815418,0.01328631863,0.006108652335
15.62545403,0.0006108652451,0.01572977938,0.006108652335
15.63545403,0.001832595794,0.01695151068,0.007330383174
15.64545403,0.001985311974,0.009621127509,0.009621127509
15.65545403,-0.04612032697,0.03359758854,0.007483099122
15.66545403,-0.02886338346,0.01664607786,0.009773843922
15.67545403,-0.01145372353,0.007024950348,0.008552113548
15.68545403,-0.004276056774,0.01450804994,0.009773843922
15.69545403,-0.0007635815418,0.02916881628,0.0109955743
15.70545403,0.01038470957,0.02199114859,0.008552113548
15.71545403,0.03252857551,0.0160352122,0.008399397135
15.72545403,0.04505131021,-0.004581489135,0.008399397135
15.73545403,0.04535674304,-0.02428189293,0.009468411095
15.74545403,0.01114829071,-0.04657847434,0.0007635815418
15.75545403,-0.008704829961,-0.01985312067,0.001069014193
15.80081498,0.08185594529,0.1113301888,-0.03634648025
15.81081498,0.08903361112,0.1272126883,-0.0313068442
15.82081498,0.09132435173,0.1408044398,-0.0251981914
15.83081498,0.09972374886,0.1568396538,-0.0262672063
15.84081498,0.09987647086,0.1481348276,-0.02764165215
15.85081498,0.1001819,0.1235474944,-0.01298088674
15.86081498,0.09178250283,0.09773843735,-0.01679879427
15.87081498,0.07391469181,0.05955936015,-0.01695151068
15.88081498,0.05803219974,0.0410806872,-0.0171042271
15.89081498,0.03283400834,-0.0009162978968,-0.01725694351
15.90081498,0.0109955743,-0.0282525178,-0.01130100712
15.91081498,0.001374446787,-0.04550946131,-0.002748893574
15.92081498,0.005039638374,-0.04428773001,0.003359758761
15.93081498,0.005039638374,-0.04673119262,0.009315694682
15.94081498,-0.002290744567,-0.05299255997,0.01298088674
15.95081498,-0.01313360315,-0.06536258012,0.01664607786
15.96081498,-0.01191187184,-0.06658431143,0.01786780916
15.97081498,-0.009621127509,-0.04932736978,0.01679879427
15.98081498,-0.0160352122,-0.03466660157,0.01191187184
15.99081498,-0.0282525178,-0.02748893574,0.008399397135
16.00081498,-0.03084869497,-0.01893682219,0.001069014193
16.01081498,-0.01756237634,-0.005192354787,-0.005039638374
16.02081498,-0.01389718428,-0.003970623948,-0.009926560335
16.03081498,-0.008857546374,-0.0125227375,-0.01237002108
16.04081498,-0.0001527163113,-0.0160352122,-0.01237002108
16.05081498,0.003665191587,-0.0282525178,-0.007635815535
16.06081498,0.006108652335,-0.03680463135,-0.001527163084
16.07081498,0.01359175146,-0.04535674304,0.001985311974
16.08081498,0.02199114859,-0.02565634064,0.003359758761
16.09081498,0.02672535367,-0.01588249579,0.004581489135
16.10081498,0.02916881628,-0.01206458826,0.005803219974
16.11081498,0.02290744707,-0.00244346098,0.007177666761
16.12081498,0.009468411095,-0.0001527163113,0.007177666761
16.13081498,0.0007635815418,0.004734205548,0.004734205548
16.14081498,-0.003054326167,0.01450804994,-0.00244346098
16.15081498,0.001832595794,0.01954768784,-0.008552113548
16.16081498,0.01298088674,0.01481348183,-0.01588249579
16.17081498,0.01924225502,0.005039638374,-0.02092213556
16.18081498,0.01572977938,-0.01832595654,-0.01496619824
16.19081498,0.008399397135,-0.02336559631,-0.0125227375
16.20081498,-0.007483099122,-0.02229658142,-0.008704829961
16.21081498,-0.003970623948,-0.01481348183,-0.008704829961
16.22081498,0.008246680722,0.00122173049,-0.005039638374
16.23081498,0.01282817032,0.01970040426,-0.006108652335
16.24081498,0.01649336144,0.0270307865,-0.006108652335
16.25081498,0.02138028294,0.03573561832,-0.0109955743
16.26081498,0.03100141138,0.05421429127,-0.01939497143
16.27081498,0.04566217586,0.05818491429,-0.02794708498
16.28081498,0.05299255997,0.0532979928,-0.03527746722
16.29081498,0.04948008433,0.04352414981,-0.0415388383
16.30081498,0.03726277873,0.03115412779,-0.03665191308
16.31081498,0.02641992271,0.02107485011,-0.02443460934
16.32081498,0.01038470957,0.02092213556,-0.01466076635
16.33081498,0.005497787148,0.02687807009,-0.003665191587
16.34081498,-0.0006108652451,0.02550362423,0.006108652335
16.35081498,-0.009010262787,0.007024950348,0.008552113548
16.36081498,-0.003970623948,-0.003970623948,0.007177666761
16.37081498,0.008246680722,-0.0001527163113,0.002290744567
16.38081498,0.02412917651,0.008704829961,-0.001374446787
16.39081498,0.03756821156,0.01007927675,-0.003817907767
16.40081498,0.03283400834,-0.001069014193,0.01206458826
16.41081498,0.01817324013,-0.01359175146,0.01802052557
16.42081498,0.0,-0.03222314268,0.02779436857
16.43081498,-0.0171042271,-0.03985895589,0.03878994286
16.44081498,-0.03298672289,-0.04489859566,0.05222897977
16.45081498,-0.03313944116,-0.03894266114,0.06200282276
16.46081498,-0.03069597855,-0.02916881628,0.06933320314
16.47081498,-0.02229658142,-0.01069014147,0.07070764899
16.48081498,-0.0262672063,0.008857546374,0.07925976813
16.49081498,-0.0423024185,0.01970040426,0.07696902007
16.50081498,-0.06185010448,0.009773843922,0.0720821023
16.51081498,-0.06933320314,0.0171042271,0.06475171447
16.52081498,-0.06414084882,0.0,0.05497787148
16.53081498,-0.03833179548,-0.009468411095,0.04627304152
16.54081498,-0.009010262787,0.00320704258,0.04138612002
16.55081498,0.01282817032,0.02306016348,0.04031710699
16.56081498,0.01496619824,0.05375614017,0.04291328415
16.57081498,0.007483099122,0.06582073122,0.04291328415
16.58081498,0.002596177394,0.06582073122,0.04046982154
16.59081498,0.003970623948,0.05726861581,0.03680463135
16.60081498,0.01634064503,0.04398229718,0.02687807009
16.61081498,0.03985895589,0.01985312067,0.01817324013
16.62081498,0.06582073122,0.009010262787,0.01450804994
16.63081498,0.08674286306,-0.0004581489484,0.01679879427
16.64081498,0.1004873365,-0.02367102914,0.0239764601
16.65081498,0.1007927656,-0.04581489414,0.02748893574
16.66081498,0.1143845171,-0.04688390717,0.02748893574
16.67081498,0.1291979998,-0.05894849449,0.0201585535
16.68081498,0.118049711,-0.05787948146,0.01893682219
16.69081498,0.09498954564,-0.0716239512,0.01893682219
16.70081498,0.08399397135,-0.08139779419,0.01023199316
16.71081498,0.08918632567,-0.108275868,0.01130100712
16.72081498,0.1088867337,-0.1166752651,0.01130100712
16.73081498,0.1371392459,-0.1127046347,0.01496619824
16.74081498,0.1592831165,-0.1235474944,0.02092213556
16.75081498,0.1554652005,-0.1101084575,0.02458732575
16.76081498,0.145691365,-0.1090394482,0.02596177347
16.77081498,0.1423316002,-0.1397354305,0.03924809024
16.78081498,0.1511891484,-0.1545489132,0.05131268129
16.79081498,0.1742493063,-0.1359175146,0.05864306539
16.80081498,0.2183843255,-0.1269072592,0.06597344577
16.81081498,0.287106663,-0.1284344196,0.06215553731
16.82081498,0.3975205719,-0.1247692257,0.05833763257
16.83081498,0.4954117239,-0.09300423414,0.04489859566
16.84081498,0.5542075038,-0.07880161703,0.04123340547
16.85081498,0.5593998432,-0.1058324054,0.04474587739
16.86081498,0.5270239711,-0.1699732542,0.05787948146
16.87081498,0.4624249935,-0.2209804952,0.07483099401
16.88081498,0.4086688459,-0.2461786866,0.07483099401
16.89081498,0.3988949955,-0.2388483137,0.0723875314
16.90081498,0.4205807149,-0.2055561543,0.07376197726
16.91081498,0.4570799172,-0.1818851233,0.07620543987
16.92081498,0.487775892,-0.169209674,0.07742717117
16.93081498,0.4896084964,-0.2293798923,0.07956519723
16.94081498,0.4743368626,-0.2932153046,0.07803803682
16.95081498,0.4398229718,-0.3978259861,0.06658431143
16.96081498,0.4111123085,-0.4679227769,0.05650503561
16.97081498,0.389426589,-0.5035057068,0.03069597855
16.98081498,0.38576141,-0.5096143484,0.01481348183
16.99081498,0.4068362415,-0.5215262175,-0.003665191587
17.00081498,0.4433354437,-0.4928155243,-0.02183843218
17.01081498,0.4906775057,-0.4566217661,-0.06444628537
17.02081498,0.5422956347,-0.4584543705,-0.06215553731
17.03081498,0.5968153477,-0.4983133376,-0.06856962293
17.04081498,0.6615670323,-0.5807801485,-0.09224065393
17.05081498,0.7163922191,-0.6621779203,-0.1111774743
17.06081498,0.7519751191,-0.7757988572,-0.1117883399
17.07081498,0.7652614117,-0.8602510095,-0.1110247597
17.08081498,0.7577783465,-0.9718865752,-0.1104138941
17.09081498,0.7683157325,-1.040456176,-0.1156062484
17.10081498,0.8205447197,-0.9847147465,-0.1227839142
17.11081498,0.8903360963,-0.8562803864,-0.125838235
17.12081498,0.9259189963,-0.7368562222,-0.1484402567
17.13081498,0.967610538,-0.6185010672,-0.1893682331
17.14081498,1.026558995,-0.5112941861,-0.1876883507
17.15081498,1.091005325,-0.4529565871,-0.1814269722
17.16081498,1.120632291,-0.3543018401,-0.2151772827
17.17081498,1.09848845,-0.2390010208,-0.2620611787
17.18081498,1.070541382,-0.161115706,-0.2371684313
17.19081498,1.072068453,-0.06215553731,-0.1560760736
17.20081498,1.083827615,0.09575312585,-0.09300423414
17.21081498,1.082758665,0.1983784884,-0.03878994286
17.22081498,1.060614824,0.2113593817,0.01145372353
17.23081498,1.020450354,0.1765400618,0.03451388702
17.24081498,0.9784533978,0.09376781434,0.04382958263
17.25081498,0.9572258592,0.01145372353,0.04474587739
17.26081498,0.9500481486,-0.1272126883,0.04886921868
17.27081498,0.9502009153,-0.2533563673,0.03711006418
17.28081498,0.9708175659,-0.3388774991,0.01954768784
17.29081498,1.019228697,-0.3947716653,0.01924225502
17.30081498,1.124602914,-0.3605632186,0.03268129006
17.31081498,1.225395679,-0.2700024247,0.0354301855
17.32081498,1.258993268,-0.1924225539,0.03573561832
17.33081498,1.17637372,-0.1540907621,0.03237585723
17.34081498,1.089172721,-0.1609629989,0.009315694682
17.35081498,1.01907599,-0.1469130963,-0.02947424725
17.36081498,0.9783006907,-0.1325577646,-0.04520402849
17.37081498,1.001819015,-0.1408044398,-0.05390885845
17.38081498,1.087034702,-0.1864666194,-0.05299255997
17.39081498,1.24906671,-0.3061962128,-0.0282525178
17.40081498,1.383915186,-0.3895792961,0.04062253982
17.41081498,1.401935697,-0.3494149148,0.1311833113
17.42081498,1.368338108,-0.3023782969,0.1948660165
17.43081498,1.344208956,-0.2306016237,0.2344195396
17.44081498,1.303433776,-0.09498954564,0.2437352389
17.45081498,1.275333881,0.007941247895,0.2040289938
17.46081498,1.292438149,0.008399397135,0.1673770845
17.47081498,1.348026872,-0.01802052557,0.173333019
17.48081498,1.404379249,-0.0004581489484,0.212275669
17.49081498,1.414763927,-0.04474587739,0.2596177161
17.50081498,1.444849014,-0.1142318025,0.2556470931
17.51081498,1.486693263,-0.113926366,0.2652682364
17.52081498,1.515862107,-0.08185594529,0.2898555696
17.53081498,1.526857734,-0.07925976813,0.2922990322
17.54081498,1.534035325,-0.07177666575,0.2727513313
17.55081498,1.498452425,-0.06856962293,0.2863430977
17.56081498,1.479057431,-0.09224065393,0.3155119121
17.57081498,1.440267563,-0.1307251602,0.3446807265
17.58081498,1.41720736,-0.1592831165,0.3530801237
17.59081498,1.429730058,-0.1835650057,0.3346014321
17.60081498,1.429577351,-0.1675297916,0.3200933933
17.61081498,1.403004766,-0.09926560521,0.3203988075
17.62081498,1.321148753,-0.02168571576,0.3307835162
17.63081498,1.297783256,-0.0232128799,0.3283400834
17.64081498,1.375668526,-0.06291911751,0.350025773
17.65081498,1.44607079,-0.09896016866,0.3680463135
17.66081498,1.474170566,-0.1954768747,0.3564398587
17.67081498,1.36772728,-0.2408336252,0.3637702465
17.68081498,1.318094492,-0.302531004,0.3439171314
17.69081498,1.33519876,-0.2973386645,0.3109304011
17.70081498,1.382387996,-0.2339613885,0.2745839357
17.71081498,1.393536329,-0.2386955917,0.2574796975
17.72081498,1.357800722,-0.3481931984,0.2678644061
17.73081498,1.349859476,-0.3966042697,0.3408628106
17.74081498,1.361465931,-0.4460843503,0.4578435123
17.75081498,1.367116451,-0.5161811113,0.4989241958
17.76081498,1.405448198,-0.5317581892,0.4951062799
17.77081498,1.431257248,-0.531452775,0.5048801303
17.78081498,1.422705173,-0.5401576161,0.5073235631
17.79081498,1.486693263,-0.5623014569,0.4424191415
17.80081498,1.506088257,-0.5337435007,0.4155410826
17.81081498,1.50181222,-0.4859432876,0.3889684379
17.82081498,1.490358472,-0.4515821338,0.3831652105
17.83081498,1.452332139,-0.4520402849,0.3795000315
17.84081498,1.406822681,-0.4463897645,0.3637702465
17.85081498,1.387885809,-0.3998112977,0.3359758854
17.86081498,1.371697903,-0.3741549551,0.3178026378
17.87081498,1.327410221,-0.3758348525,0.3045163155
17.88081498,1.267239928,-0.3727805018,0.3008511364
17.89081498,1.256091714,-0.3593414724,0.2948952019
17.90081498,1.243721604,-0.3484986126,0.2901609838
17.91081498,1.218981624,-0.3413209617,0.2840523422
17.92081498,1.185689449,-0.3208569586,0.2732094824
17.93081498,1.138958216,-0.3188716471,0.2819143236
17.94081498,1.081689596,-0.2472477108,0.2811507285
17.95081498,1.032362223,-0.2293798923,0.2800817192
17.96081498,0.9685268402,-0.2252565622,0.2948952019
17.97081498,0.8849910498,-0.2247984111,0.2767219543
17.98081498,0.7225008607,-0.1824959964,0.2747366428
17.99081498,0.5413793325,-0.122020334,0.2814561725
18.00081498,0.4344778955,-0.007483099122,0.2066251636
18.01081498,0.2510656118,0.2486221492,0.0716239512
18.02081498,0.1592831165,0.228310883,0.01664607786
18.03081498,0.2023491114,-0.0125227375,-0.02000583708
18.04081498,0.2843577862,-0.2150245607,-0.03955352306
18.05081498,0.2932153046,-0.3544545472,-0.08307767659
18.06081498,0.2096794993,-0.3562871516,-0.1366810948
18.07081498,0.07788532227,-0.3231477141,-0.1985312104
18.08081498,-0.06994406879,-0.275652945,-0.2127338201
18.09081498,-0.1426370293,-0.2568688393,-0.2063197345
18.10081498,-0.176998198,-0.2524400651,-0.1708895564
18.11081498,-0.1540907621,-0.2109012306,-0.1096503139
18.12081498,-0.09208793938,-0.1479821056,-0.0545197241
18.13081498,-0.03756821156,-0.07651086897,-0.01634064503
18.14081498,0.03176499158,-0.01374446787,0.06933320314
18.15081498,0.0833831057,-0.01328631863,0.09483683109
18.16081498,0.1209513173,-0.08872817457,0.0613919571
18.17081498,0.1624901593,-0.1823432744,0.01572977938
18.18081498,0.2446515262,-0.2941316068,-0.01313360315
18.19081498,0.3159700334,-0.4195117056,-0.02611448988
18.20081498,0.3379611969,-0.5184718966,-0.03039054573
18.21081498,0.3061962128,-0.5360342264,-0.03283400834
18.22081498,0.2370157093,-0.4938845634,-0.03375030309
18.23081498,0.1459967941,-0.3674354553,-0.03283400834
18.24081498,0.0853684172,-0.2134974003,-0.03680463135
18.25081498,0.07422012836,-0.09224065393,-0.04718934
18.26081498,0.07971791178,-0.02840523422,-0.05161811411
18.27081498,0.06352998316,-0.006566801574,-0.04780020565
18.28081498,0.02779436857,0.005345070735,-0.04535674304
18.29081498,-0.007788531948,0.006108652335,-0.0415388383
18.30081498,-0.03191770986,0.06841690838,-0.04856378585
18.31081498,-0.04260785133,0.1540907621,-0.05910121277
18.32081498,-0.04856378585,0.2510656118,-0.0853684172
18.33081498,-0.04825835302,0.3346014321,-0.1142318025
18.34081498,-0.05635231733,0.3923282027,-0.1346957833
18.35081498,-0.05665775016,0.4193589985,-0.1504255682
18.36081498,-0.05177082866,0.4256203473,-0.1661553532
18.37081498,-0.06948592514,0.3543018401,-0.1629483104
18.38081498,-0.1049161032,0.2324342281,-0.1452332139
18.39081498,-0.1186605766,0.1426370293,-0.126143679
18.40081498,-0.1212567538,0.04321871698,-0.108275868
18.41081498,-0.1215621829,-0.04138612002,-0.09285151958
18.42081498,-0.1307251602,-0.09804387391,-0.0833831057
18.43081498,-0.1285871267,-0.07483099401,-0.06261368841
18.44081498,-0.1076650023,-0.08063421398,-0.06994406879
18.45081498,-0.07559457421,-0.08643743396,-0.06887505949
18.46081498,-0.08597928286,-0.145385921,-0.0716239512
18.47081498,-0.1108720452,-0.2302961946,-0.06459899992
18.48081498,-0.1154535338,-0.2646573782,-0.05986479297
18.49081498,-0.1154535338,-0.263435632,-0.05742133409
18.50081498,-0.1148426682,-0.2021963894,-0.05711590126
18.51081498,-0.1114829108,-0.1776090711,-0.05207626149
18.52081498,-0.1227839142,-0.2625193298,-0.03665191308
18.53081498,-0.1227839142,-0.2625193298,-0.03665191308
18.54081498,-0.08643743396,-0.2168571651,-0.005955935922
18.55081498,-0.04749477282,-0.07544185966,0.0007635815418
18.56081498,-0.01954768784,0.0719293803,0.0003054326226
18.57081498,-0.006872233935,0.1420261711,-0.0006108652451
18.58081498,0.002901609987,0.1543961912,-0.00167987938
18.59081498,0.001527163084,0.1568396538,-0.002901609987
18.60081498,0.003054326167,0.1408044398,-0.004276056774
18.61081498,0.002138028387,0.1102611795,-0.005650503561
18.62081498,-0.00122173049,0.08200865984,-0.007024950348
18.63081498,-0.0009162978968,0.05131268129,-0.005955935922
18.64081498,-0.003054326167,0.0232128799,-0.009773843922
18.65081498,-0.007788531948,-0.003817907767,-0.0160352122
18.66081498,-0.01511891466,-0.003970623948,-0.01970040426
18.67081498,-0.0190895386,0.02061670274,-0.02443460934
18.68081498,-0.01527163107,0.01695151068,-0.0232128799
18.69081498,-0.01313360315,0.0354301855,-0.02550362423
18.70081498,0.0003054326226,0.04902193695,-0.02916881628
18.71081498,0.003665191587,0.07971791178,-0.03268129006
18.72081498,-0.008399397135,0.06001751125,-0.03634648025
18.73081498,-0.02901609987,0.02794708498,-0.04016438872
18.74081498,-0.05085453019,0.005650503561,-0.0415388383
18.75081498,-0.06536258012,-0.01664607786,-0.04031710699
18.76081498,-0.084604837,-0.04382958263,-0.03558290005
18.77081498,-0.09529497474,-0.07956519723,-0.03451388702
18.78081498,-0.1033889428,-0.129808858,-0.03237585723
18.79081498,-0.1128573567,-0.1594358236,-0.03252857551
18.80081498,-0.1317941695,-0.228463605,-0.003512475174
18.81081498,-0.1128573567,-0.1582140923,-0.0190895386
18.82081498,-0.05390885845,-0.0545197241,-0.02474004216
18.83081498,-0.01160643995,0.01206458826,-0.02565634064
18.84081498,-0.01053742506,0.03420845419,-0.03161227703
18.85081498,-0.01542434748,0.0293215327,-0.03161227703
18.86081498,-0.02260201424,0.01450804994,-0.0293215327
18.87081498,-0.02351831272,-0.01740965992,-0.022143865
18.88081498,-0.0282525178,-0.03711006418,-0.01863138936
18.89081498,-0.03558290005,-0.04459316283,-0.01740965992
18.90081498,-0.03711006418,-0.007788531948,-0.01359175146
18.91081498,-0.02641992271,0.02290744707,-0.01343903504
18.92081498,-0.02275473066,0.02168571576,-0.01466076635
18.93081498,-0.01679879427,0.04260785133,-0.01817324013
18.94081498,-0.005039638374,0.08323039114,-0.01802052557
18.95081498,-0.007483099122,0.08811730891,-0.01435533352
18.96081498,-0.01572977938,0.04871650413,-0.009621127509
18.97081498,-0.01786780916,0.02657263726,-0.004886921961
18.98081498,-0.02229658142,-0.01634064503,0.003512475174
18.99081498,-0.03649919853,-0.07040221989,0.004428773187
19.00081498,-0.05299255997,-0.1246165112,0.00167987938
19.01081498,-0.04932736978,-0.1233947799,0.00167987938
19.02081498,-0.03512475267,-0.07666359097,0.005650503561
19.03081498,-0.02687807009,-0.04703662544,0.004581489135
19.04081498,-0.03298672289,-0.0532979928,0.003359758761
19.05081498,-0.04520402849,-0.05467243865,0.005803219974
19.06081498,-0.04535674304,-0.04001167417,0.007024950348
19.07081498,-0.03573561832,-0.02641992271,0.01206458826
19.08081498,-0.02733621933,-0.01038470957,0.01450804994
19.09081498,-0.02611448988,-0.003054326167,0.01572977938
19.10081498,-0.0201585535,0.01542434748,0.01588249579
19.11081498,-0.009315694682,0.03023782931,0.01588249579
19.12081498,-0.002138028387,0.05115996301,0.01359175146
19.13081498,0.004886921961,0.07834346592,0.007635815535
19.14081498,0.006108652335,0.08567385375,0.003970623948
19.15081498,0.003512475174,0.09178250283,-0.0009162978968
19.16081498,0.002138028387,0.1029307917,-0.004428773187
19.17081498,0.007024950348,0.104152523,-0.004428773187
19.18081498,0.006261368748,0.06246097013,-0.007177666761
19.19081498,0.004276056774,0.01832595654,-0.008552113548
19.20081498,0.01542434748,0.01359175146,-0.008552113548
19.21081498,0.02748893574,0.03084869497,-0.006108652335
19.22081498,0.04199698567,0.05177082866,-0.003512475174
19.23081498,0.05161811411,0.07651086897,-0.004734205548
19.24081498,0.06123924255,0.09621127695,-0.004581489135
19.25081498,0.05619960278,0.0972802937,-0.005803219974
19.26081498,0.04780020565,0.08994990587,-0.008246680722
19.27081498,0.02962696366,0.06643159688,-0.009621127509
19.28081498,0.02611448988,0.05283984542,-0.008399397135
19.29081498,0.02733621933,0.0430659987,-0.006108652335
19.30081498,0.01053742506,0.006108652335,-0.007483099122
19.31081498,-0.008704829961,-0.02474004216,-0.007635815535
19.32081498,-0.01847867295,-0.02611448988,-0.009926560335
19.33081498,-0.01160643995,0.01206458826,-0.01343903504
19.34081498,0.004276056774,0.02809980139,-0.01588249579
19.35081498,0.01878410578,0.04428773001,-0.02306016348
19.36081498,0.0293215327,0.0849102661,-0.02901609987
19.37081498,0.04138612002,0.1033889428,-0.02153299935
19.38081498,0.01343903504,0.08597928286,-0.04001167417
19.39081498,-0.003512475174,0.0601702258,-0.06688974798
19.40081498,-0.01786780916,0.02336559631,-0.09025534242
19.41081498,-0.01282817032,0.008857546374,-0.1014036313
19.42081498,-0.01847867295,-0.03924809024,-0.0552833043
19.43081498,-0.0004581489484,-0.003359758761,-0.09773843735
19.44081498,0.0415388383,0.08552113175,-0.1035416573
19.45081498,0.05971207842,0.1088867337,-0.07895433158
19.46081498,0.02504547499,0.02367102914,-0.05131268129
19.47081498,-0.01053742506,0.02794708498,0.004886921961
19.48081498,-0.01450804994,0.06200282276,0.03191770986
19.49081498,-0.01725694351,0.09010262042,0.0430659987
19.50081498,-0.006414085161,0.1110247597,0.04199698567
19.51081498,0.002290744567,0.09162978828,0.02962696366
19.52081498,0.0,0.08185594529,0.02474004216
19.53081498,-0.0109955743,0.06826419383,0.02229658142
19.54081498,-0.01572977938,0.06078109145,0.02580905706
19.55081498,-0.01588249579,0.07299839705,0.03329215571
19.56081498,-0.01328631863,0.06322455406,0.03069597855
19.57081498,-0.01664607786,0.0239764601,0.02199114859
19.58081498,-0.01893682219,0.009315694682,0.01343903504
19.59081498,-0.01053742506,0.02412917651,0.006108652335
19.60081498,0.0003054326226,0.05131268129,0.002596177394
19.61081498,0.009926560335,0.06734789163,0.002596177394
19.62081498,0.007483099122,0.06490442902,0.002596177394
19.63081498,0.002596177394,0.05864306539,0.003817907767
19.64081498,-0.003512475174,0.05986479297,0.005039638374
19.65081498,0.0001527163113,0.06475171447,0.009926560335
19.66081498,0.003817907767,0.07223481685,0.008857546374
19.67081498,0.004886921961,0.07712173462,0.007635815535
19.68081498,0.005192354787,0.05742133409,0.007483099122
19.69081498,0.002901609987,0.03054326214,0.004886921961
19.70081498,0.002748893574,0.04886921868,0.0001527163113
19.71081498,0.01114829071,0.07345654815,-0.0009162978968
19.72081498,0.01084285788,0.09804387391,0.0004581489484
19.73081498,0.005955935922,0.0968221426,-0.001985311974
19.74081498,-0.003970623948,0.1003346145,0.0004581489484
19.75081498,0.005345070735,0.1434006095,-0.0006108652451
19.76081498,0.01725694351,0.1777617931,0.0007635815418
19.77081498,0.02336559631,0.1840231568,0.0007635815418
19.78081498,0.01588249579,0.1985312104,0.003359758761
19.79081498,0.01069014147,0.2170098722,-0.0001527163113
19.80081498,0.006872233935,0.2390010208,-0.00244346098
19.81081498,0.007788531948,0.2599231601,-0.004886921961
19.82081498,0.01023199316,0.2587014437,-0.00244346098
19.83081498,0.01298088674,0.2341141105,-0.005039638374
19.84081498,0.0155770639,0.2218967974,-0.006261368748
19.85081498,0.02031126991,0.2367102802,-0.005039638374
19.86081498,0.04428773001,0.3019201458,0.001374446787
19.87081498,0.0723875314,0.3022255898,-0.002290744567
19.88081498,0.06475171447,0.216399014,-0.005192354787
19.89081498,0.04092797264,0.1449277848,-0.005497787148
19.90081498,0.008704829961,0.06246097013,-0.003512475174
19.91081498,-0.01496619824,-0.01496619824,-0.002596177394
19.92081498,-0.01954768784,-0.04321871698,-0.002748893574
19.93081498,-0.01359175146,-0.02733621933,-0.001527163084
19.94081498,-0.004123340361,-0.0001527163113,-0.001374446787
19.95081498,0.002901609987,0.03787364438,0.0001527163113
19.96081498,0.01007927675,0.05024366826,0.003817907767
19.97081498,0.02168571576,0.1116356254,0.002901609987
19.98081498,0.03940080851,0.1768454909,0.004428773187
19.99081498,0.05833763257,0.2382374406,0.003512475174
20.00081498,0.06322455406,0.2408336252,0.004734205548
20.01081498,0.04535674304,0.192727983,0.006872233935
20.02081498,0.02886338346,0.1276708394,0.01145372353
20.03081498,0.01740965992,0.05879577994,0.01114829071
20.04081498,-0.003665191587,-0.03451388702,0.009468411095
20.05081498,-0.02443460934,-0.04948008433,-0.0003054326226
20.06081498,-0.01206458826,0.05742133409,-0.007177666761
20.07081498,0.01343903504,0.08582656831,-0.003359758761
20.08081498,0.02107485011,0.0552833043,0.001374446787
20.09081498,0.005650503561,0.01343903504,0.00244346098
20.10081498,-0.01466076635,-0.04321871698,0.0009162978968
20.11081498,-0.02306016348,-0.05681046844,0.0007635815418
20.12081498,-0.01847867295,-0.03222314268,-0.0003054326226
20.13081498,-0.003970623948,-0.01130100712,-0.001374446787
20.14081498,-0.008704829961,-0.02474004216,-0.001527163084
20.15081498,-0.0125227375,-0.01740965992,-0.001374446787
20.16081498,-0.01267545391,0.003359758761,-0.003665191587
20.17081498,-0.004428773187,0.03283400834,-0.003665191587
20.18081498,0.0004581489484,0.03909537569,-0.004734205548
20.19081498,-0.003054326167,0.02550362423,-0.004886921961
20.20081498,-0.00320704258,0.0293215327,-0.004886921961
20.21081498,0.0004581489484,0.04031710699,-0.004734205548
20.22081498,0.001985311974,0.01206458826,-0.00244346098
20.23081498,-0.0003054326226,-0.007483099122,-0.0001527163113
20.24081498,-0.005039638374,-0.02351831272,-0.0003054326226
20.25081498,-0.002748893574,-0.006261368748,0.001069014193
20.26081498,0.01007927675,0.04780020565,0.001374446787
20.27081498,0.02336559631,0.07849618047,0.003970623948
20.28081498,0.022143865,0.0736092627,0.002748893574
20.29081498,0.0125227375,0.05757404864,0.001374446787
20.30081498,0.005497787148,0.01832595654,0.00122173049
20.31081498,-0.003817907767,-0.01985312067,0.003512475174
20.32081498,-0.007483099122,-0.02962696366,0.003359758761
20.33081498,-0.006261368748,-0.02474004216,0.003359758761
20.34081498,-0.003817907767,-0.01863138936,0.005955935922
20.35081498,-0.005192354787,-0.01618792862,0.005955935922
20.36081498,-0.008552113548,-0.04444044828,0.008246680722
20.37081498,-0.01206458826,-0.06169738993,0.006872233935
20.38081498,-0.01328631863,-0.05787948146,0.00320704258
20.39081498,-0.009621127509,-0.04810563847,0.002138028387
20.40081498,-0.003817907767,-0.01863138936,0.001069014193
20.41081498,0.0009162978968,-0.003817907767,0.003512475174
20.42081498,0.0007635815418,0.002290744567,0.001069014193
20.43081498,-0.0003054326226,-0.001374446787,0.001069014193
20.44081498,-0.001374446787,-0.01740965992,0.002290744567
20.45081498,-0.007177666761,-0.04688390717,0.002138028387
20.46081498,-0.01817324013,-0.05681046844,0.001985311974
20.47081498,-0.01695151068,-0.06169738993,0.0007635815418
20.48081498,-0.01572977938,-0.06291911751,-0.0004581489484
20.49081498,-0.01450804994,-0.05787948146,-0.0004581489484
20.50081498,-0.008704829961,-0.02474004216,-0.002748893574
20.51081498,-0.003970623948,-0.01130100712,-0.002596177394
20.52081498,-0.005039638374,-0.01863138936,-0.002596177394
20.53081498,-0.009926560335,-0.03329215571,-0.003970623948
20.54081498,-0.01237002108,-0.03344487399,-0.003970623948
20.55081498,-0.01221730467,-0.03833179548,-0.003970623948
20.56081498,-0.01328631863,-0.06154467165,-0.004123340361
20.57081498,-0.0155770639,-0.06902777404,-0.002901609987
20.58081498,-0.01817324013,-0.06047565863,-0.004123340361
20.59081498,-0.009621127509,-0.05421429127,-0.00167987938
20.60081498,-0.007330383174,-0.04199698567,-0.0003054326226
20.61081498,-0.005192354787,-0.008857546374,-0.001374446787
20.62081498,-0.0004581489484,0.01084285788,-0.00122173049
20.63081498,-0.006414085161,-0.01618792862,0.001069014193
20.64081498,-0.01572977938,-0.06414084882,0.001985311974
20.65081498,-0.02382374369,-0.09972374886,0.001832595794
20.66081498,-0.02382374369,-0.09972374886,0.003054326167
20.67081498,-0.0190895386,-0.08246681094,0.00320704258
20.68081498,-0.007177666761,-0.05910121277,0.0007635815418
20.69081498,-0.003665191587,-0.04184427112,0.0009162978968
20.70081498,-0.004886921961,-0.04184427112,0.0009162978968
20.71081498,-0.003665191587,-0.03817907721,-0.001527163084
20.72081498,-0.00244346098,-0.03573561832,-0.0003054326226
20.73081498,-0.006108652335,-0.04428773001,-0.001527163084
20.74081498,-0.01191187184,-0.07513642311,0.0007635815418
20.75081498,-0.0190895386,-0.08735372871,0.0006108652451
20.76081498,-0.01939497143,-0.05925392732,0.0007635815418
20.77081498,-0.01237002108,-0.02367102914,0.001069014193
20.78081498,-0.0006108652451,0.01939497143,-0.0
20.79081498,-0.004276056774,0.01206458826,0.00122173049
20.80081498,-0.006414085161,-0.006414085161,0.001069014193
20.81081498,-0.002901609987,0.004734205548,0.001069014193
20.82081498,0.0006108652451,0.01939497143,-0.0
20.83081498,0.0006108652451,0.02061670274,0.00122173049
20.84081498,0.0007635815418,0.01206458826,-0.0
20.85081498,0.001985311974,0.01084285788,-0.00122173049
20.86081498,0.00320704258,0.008399397135,0.00122173049
20.87081498,0.0007635815418,0.01328631863,-0.0
20.88081498,0.0006108652451,0.02428189293,0.00122173049
20.89081498,0.0006108652451,0.02183843218,0.00122173049
20.90081498,-0.002748893574,-0.003817907767,0.002290744567
20.91081498,-0.003970623948,-0.002596177394,-0.001374446787
20.92081498,-0.002901609987,0.003512475174,-0.001374446787
20.93081498,-0.00167987938,0.001069014193,0.001069014193
20.94081498,-0.0004581489484,0.005955935922,-0.0001527163113
20.95081498,-0.0006108652451,0.01450804994,-0.0
20.96081498,0.004276056774,0.01954768784,0.00122173049
20.97081498,0.006719517522,0.02443460934,-0.0
20.98081498,0.004276056774,0.02199114859,-0.00122173049
20.99081498,0.00320704258,0.01450804994,-0.0
21.00081498,0.0007635815418,0.01206458826,-0.0
21.01081498,-0.00167987938,0.004734205548,0.001069014193
21.02081498,-0.0003054326226,-0.002596177394,0.001069014193
21.03081498,-0.0004581489484,0.001069014193,0.003512475174
21.04081498,0.001985311974,0.007177666761,0.001069014193
21.05081498,0.004276056774,0.01954768784,0.00244346098
21.06081498,0.009162978269,0.02687807009,0.00122173049
21.07081498,0.006719517522,0.01832595654,-0.0
21.08081498,-0.0004581489484,0.009621127509,-0.0
21.09081498,0.0007635815418,0.005955935922,-0.0001527163113
21.10081498,0.001985311974,0.003512475174,-0.001374446787
21.11081498,0.0007635815418,0.004734205548,-0.001374446787
21.12081498,0.0007635815418,0.01084285788,-0.00122173049
21.13081498,0.0007635815418,0.01084285788,-0.00122173049
21.14081498,0.003359758761,-0.001374446787,-0.0001527163113
21.15081498,0.004428773187,0.007177666761,0.001069014193
21.16081498,0.00320704258,0.008399397135,0.001069014193
21.17081498,-0.0004581489484,0.001069014193,0.001069014193
21.18081498,-0.002748893574,-0.01130100712,0.001069014193
21.19081498,-0.002748893574,-0.008704829961,-0.0001527163113
21.20081498,0.003359758761,-0.005039638374,0.001069014193
21.21081498,0.003359758761,-0.005039638374,0.002290744567
21.22081498,0.002138028387,-0.005039638374,0.001069014193
21.23081498,0.002138028387,-0.002596177394,0.001069014193
21.24081498,-0.0004581489484,0.003512475174,0.002290744567
21.25081498,0.0007635815418,0.002290744567,0.003512475174
21.26081498,0.0007635815418,0.001069014193,0.003512475174
21.27081498,-0.00167987938,-0.0001527163113,0.002290744567
21.28081498,0.00320704258,0.004734205548,0.002290744567
21.29081498,0.005650503561,0.01343903504,0.00244346098
21.30081498,0.006872233935,0.0109955743,0.00122173049
21.31081498,0.005650503561,0.003512475174,0.002290744567
21.32081498,0.001985311974,0.002290744567,0.002290744567
21.33081498,-0.0004581489484,0.007177666761,0.002290744567
21.34081498,-0.01023199316,0.008246680722,0.00244346098
21.35081498,-0.01756237634,-0.002748893574,0.001069014193
21.36081498,-0.0201585535,0.005803219974,-0.0
21.37081498,-0.0262672063,0.006872233935,-0.00122173049
21.38081498,-0.03237585723,0.001985311974,-0.0
21.39081498,-0.03344487399,-0.004276056774,0.002290744567
21.40081498,-0.01878410578,-0.006566801574,0.001069014193
21.41081498,-0.007788531948,0.0009162978968,0.001069014193
21.42081498,0.002138028387,-0.0001527163113,-0.0001527163113
21.43081498,0.01313360315,-0.00122173049,-0.001374446787
21.44081498,0.02412917651,-0.001069014193,-0.001374446787
21.45081498,0.03772092983,-0.0009162978968,-0.001374446787
21.46081498,0.04260785133,-0.005803219974,-0.002596177394
21.47081498,0.04276056588,-0.01313360315,-0.001527163084
21.48081498,0.02443460934,-0.03054326214,-0.003970623948
21.53511463,0.0726929605,0.05955936015,-0.005955935922
21.54511463,0.06307183951,0.037415497,-0.01221730467
21.55511463,0.05589416996,0.01649336144,-0.01359175146
21.56511463,0.04978551716,0.01145372353,-0.01114829071
21.57511463,0.04978551716,0.01634064503,-0.005039638374
21.58511463,0.0532979928,0.02367102914,-0.001374446787
21.59511463,0.04856378585,0.01878410578,0.001069014193
21.60511463,0.03878994286,0.006414085161,0.003512475174
21.61511463,0.03527746722,-0.007177666761,0.004734205548
21.62511463,0.03909537569,-0.01572977938,0.01191187184
21.63511463,0.0293215327,-0.0232128799,0.01679879427
21.64511463,0.02199114859,-0.03069597855,0.01313360315
21.65511463,0.01832595654,-0.02458732575,0.01191187184
21.66511463,0.01588249579,-0.03191770986,0.007024950348
21.67511463,0.01359175146,-0.03924809024,0.007024950348
21.68511463,0.008552113548,-0.03313944116,0.007024950348
21.69511463,0.008399397135,-0.01237002108,0.007177666761
21.70511463,0.01191187184,0.00244346098,0.008399397135
21.71511463,0.01420261711,0.01832595654,0.01221730467
21.72511463,0.0201585535,0.03680463135,0.01466076635
21.73511463,0.02977968007,0.04673119262,0.01343903504
21.74511463,0.03955352306,0.05543602258,0.01359175146
21.75511463,0.03833179548,0.05665775016,0.008704829961
21.76511463,0.03726277873,0.04444044828,0.00244346098
21.77511463,0.03848451003,0.04199698567,-0.00122173049
21.78511463,0.04337143153,0.03711006418,-0.00244346098
21.79511463,0.04718934,0.02977968007,-0.00244346098
21.80511463,0.04596760869,0.02611448988,0.00122173049
21.81511463,0.0423024185,0.01985312067,0.005955935922
21.82511463,0.037415497,0.02596177347,0.01221730467
21.83511463,0.0313068442,0.0270307865,0.01466076635
21.84511463,0.0262672063,0.02947424725,0.01221730467
21.85511463,0.02138028294,0.02947424725,0.004886921961
21.86511463,0.01924225502,0.007330383174,0.001069014193
21.87511463,0.02412917651,0.002596177394,-0.001374446787
21.88511463,0.02550362423,-0.01221730467,0.001069014193
21.89511463,0.02428189293,-0.01343903504,0.003359758761
21.90511463,0.0171042271,-0.02336559631,0.007024950348
21.91511463,0.004734205548,-0.02229658142,0.009468411095
21.92511463,0.00122173049,-0.03329215571,0.01313360315
21.93511463,-0.0001527163113,-0.02474004216,0.01435533352
21.94511463,-0.0001527163113,-0.01863138936,0.01328631863
21.95511463,0.007024950348,-0.003817907767,0.01084285788
21.96511463,0.01435533352,0.006108652335,0.008399397135
21.97511463,0.02153299935,0.01481348183,0.007177666761
21.98511463,0.02886338346,0.02336559631,0.006108652335
21.99511463,0.0251981914,0.01847867295,0.003665191587
22.00511463,0.02290744707,0.006261368748,0.002290744567
22.01511463,0.01924225502,-0.003665191587,-0.0001527163113
22.02511463,0.01695151068,-0.009773843922,-0.001374446787
22.03511463,0.01817324013,-0.0171042271,-0.0003054326226
22.04511463,0.02443460934,-0.02076941915,0.004581489135
22.05511463,0.02672535367,-0.01466076635,0.007024950348
22.06511463,0.03527746722,-0.008399397135,0.01191187184
22.07511463,0.04138612002,-0.002290744567,0.01572977938
22.08511463,0.04612032697,0.01374446787,0.01817324013
22.09511463,0.04489859566,0.01985312067,0.01817324013
22.10511463,0.04001167417,0.01374446787,0.01450804994
22.11511463,0.03649919853,0.002596177394,0.01084285788
22.12511463,0.03039054573,-0.01206458826,0.008246680722
22.13511463,0.03039054573,-0.009621127509,0.009621127509
22.14511463,0.03405573592,-0.007177666761,0.01084285788
22.15511463,0.03649919853,0.0001527163113,0.01450804994
22.16511463,0.03649919853,0.002596177394,0.01572977938
22.17511463,0.03268129006,0.006261368748,0.01695151068
22.18511463,0.02779436857,0.00122173049,0.01572977938
22.19511463,0.02672535367,-0.003665191587,0.01817324013
22.20511463,0.02901609987,0.0,0.01572977938
22.21511463,0.03527746722,-0.002290744567,0.01328631863
22.22511463,0.03039054573,-0.002290744567,0.005955935922
22.23511463,0.02428189293,-0.009773843922,0.001069014193
22.24511463,0.01939497143,-0.01466076635,-0.001374446787
22.25511463,0.01939497143,-0.01832595654,-0.002748893574
22.26511463,0.02199114859,-0.02443460934,0.002138028387
22.27511463,0.02565634064,-0.02809980139,0.005803219974
22.28511463,0.0293215327,-0.02443460934,0.01191187184
22.29511463,0.02565634064,-0.02687807009,0.01679879427
22.30511463,0.02061670274,-0.01725694351,0.02168571576
22.31511463,0.01695151068,-0.007483099122,0.02428189293
22.32511463,0.02046398632,-0.0001527163113,0.02672535367
22.33511463,0.0251981914,0.0171042271,0.02550362423
22.34511463,0.02993239649,0.04291328415,0.02687807009
22.35511463,0.03359758854,0.04291328415,0.02565634064
22.36511463,0.02993239649,0.03436116874,0.02687807009
22.37511463,0.02504547499,0.03176499158,0.02687807009
22.38511463,0.02733621933,0.04657847434,0.02687807009
22.39511463,0.02000583708,0.05131268129,0.02947424725
22.40511463,0.02000583708,0.04764748737,0.03558290005
22.41511463,0.01893682219,0.03054326214,0.0354301855
22.42511463,0.01420261711,0.01572977938,0.03283400834
22.43511463,0.003512475174,-0.01130100712,0.03405573592
22.44511463,-0.002596177394,-0.02367102914,0.04001167417
22.45511463,0.003665191587,-0.02977968007,0.04734205827
22.46511463,0.01481348183,-0.03466660157,0.05711590126
22.47511463,0.01359175146,-0.04337143153,0.06795875728
22.48511463,-0.001069014193,-0.04474587739,0.07773260027
22.49511463,-0.0232128799,-0.03894266114,0.08032877743
22.50511463,-0.02809980139,-0.04627304152,0.08155050874
22.51511463,-0.0171042271,-0.04489859566,0.08017606288
22.52511463,-0.001374446787,-0.01160643995,0.06811147183
22.53511463,0.002138028387,0.00320704258,0.05726861581
22.54511463,-0.007788531948,0.00320704258,0.05238169432
22.55511463,-0.01145372353,0.008093964309,0.04749477282
22.56511463,-0.007788531948,0.001985311974,0.03527746722
22.57511463,-0.0003054326226,-0.001527163084,0.02183843218
22.58511463,0.01069014147,-0.001374446787,0.01206458826
22.59511463,0.004734205548,-0.01970040426,0.004581489135
22.60511463,-0.02443460934,-0.04459316283,-0.003970623948
22.61511463,-0.06734789163,-0.05360342562,-0.01618792862
22.62511463,-0.08582656831,-0.04382958263,-0.022143865
22.63511463,-0.07880161703,-0.01313360315,-0.02443460934
22.64511463,-0.05589416996,0.02504547499,-0.02550362423
22.65511463,-0.03558290005,0.06704246253,-0.02290744707
22.66511463,-0.02244929783,0.1101084575,-0.02153299935
22.67511463,-0.03375030309,0.1307251602,-0.02260201424
22.68511463,-0.05467243865,0.1330159009,-0.02244929783
22.69511463,-0.07422012836,0.1314887404,-0.01634064503
22.70511463,-0.0841466859,0.1350012124,-0.01023199316
22.71511463,-0.06811147183,0.1339322031,-0.00167987938
22.72511463,-0.0251981914,0.1331686229,0.0140499007
22.73511463,-0.00167987938,0.125990957,0.01771509275
22.74511463,0.0009162978968,0.1003346145,0.01511891466
22.75511463,-0.01343903504,0.0731511116,0.01985312067
22.76511463,-0.03054326214,0.06673702598,0.02596177347
22.77511463,-0.06093380973,0.04184427112,0.03436116874
22.78511463,-0.06200282276,0.02229658142,0.03680463135
22.79511463,-0.02871066704,0.0140499007,0.03420845419
22.80511463,0.01420261711,0.01084285788,0.03649919853
22.81511463,0.05360342562,0.01130100712,0.03894266114
22.82511463,0.06734789163,-0.01313360315,0.04001167417
22.83511463,0.06750060618,-0.02412917651,0.03863722831
22.84511463,0.0491746515,-0.0354301855,0.037415497
22.85511463,0.03680463135,-0.03420845419,0.03375030309
22.86511463,0.03940080851,-0.0415388383,0.0251981914
22.87511463,0.05054909736,-0.05360342562,0.01542434748
22.88511463,0.04718934,-0.08185594529,0.007941247895
22.89511463,0.03970624134,-0.07819075137,0.004276056774
22.90511463,0.01282817032,-0.08216137439,0.007941247895
22.91511463,-0.02657263726,-0.07773260027,0.01298088674
22.92511463,-0.05726861581,-0.07941248268,0.02031126991
22.93511463,-0.07452555746,-0.07101308554,0.02641992271
22.94511463,-0.08078692853,-0.05146539584,0.03145955876
22.95511463,-0.0552833043,-0.02794708498,0.03405573592
22.96511463,-0.02351831272,-0.009162978269,0.03649919853
22.97511463,-0.007635815535,-0.01511891466,0.03649919853
22.98511463,0.002290744567,-0.02489275858,0.03145955876
22.99511463,0.01237002108,-0.04550946131,0.0251981914
23.00511463,0.03100141138,-0.05879577994,0.02031126991
23.01511463,0.04703662544,-0.06352998316,0.01771509275
23.02511463,0.06536258012,-0.06322455406,0.01649336144
23.03511463,0.08368854225,-0.05085453019,0.0201585535
23.04511463,0.09453139454,-0.02871066704,0.02764165215
23.05511463,0.07712173462,-0.0190895386,0.03268129006
23.06511463,0.06994406879,-0.02779436857,0.03375030309
23.07511463,0.08109235764,-0.0361937657,0.0361937657
23.08511463,0.1055269688,-0.02244929783,0.03985895589
23.09511463,0.1397354305,-0.01237002108,0.04474587739
23.10511463,0.1632537395,-0.0232128799,0.05070181563
23.11511463,0.1829541475,-0.04016438872,0.05192354694
23.12511463,0.2240348309,-0.08261952549,0.0479529202
23.13511463,0.2832887471,-0.1101084575,0.04764748737
23.14511463,0.3425426781,-0.1437060535,0.04489859566
23.15511463,0.3984368443,-0.1982257664,0.04092797264
23.16511463,0.4282165468,-0.2396118939,0.0479529202
23.17511463,0.4386012554,-0.2849686444,0.05742133409
23.18511463,0.4474588037,-0.3057380617,0.06337726861
23.19511463,0.5025894046,-0.2929098904,0.06582073122
23.20511463,0.5722280145,-0.2614503205,0.0731511116
23.21511463,0.6685920358,-0.2064724565,0.08185594529
23.22511463,0.766330421,-0.1626428664,0.09285151958
23.23511463,0.8558222055,-0.1432479024,0.1075122803
23.24511463,0.9251554012,-0.1941024363,0.1192714423
23.25511463,1.029155254,-0.278859973,0.1320996135
23.26511463,1.148121238,-0.3805690408,0.1350012124
23.27511463,1.258687854,-0.5030475259,0.1391245574
23.28511463,1.36100781,-0.6453791261,0.1406517178
23.29511463,1.429577351,-0.7464773059,0.1398881376
23.30511463,1.463785887,-0.8393288255,0.1516472995
23.31511463,1.447292447,-0.9082038999,0.1682933718
23.32511463,1.428202987,-0.9587529898,0.1791362315
23.33511463,1.420872569,-0.9587529898,0.1681406647
23.34511463,1.453401089,-0.8993463516,0.1305724531
23.35511463,1.481806397,-0.8129089475,0.06750060618
23.36511463,1.460273385,-0.7562511563,-0.005497787148
23.37511463,1.419498086,-0.7318165898,-0.0723875314
23.38511463,1.351997495,-0.7373143435,-0.1211040318
23.39511463,1.232726097,-0.7286095023,-0.1368338168
23.40511463,1.102000952,-0.6713408828,-0.1252273768
23.41511463,1.041830659,-0.5615378618,-0.1476766765
23.42511463,1.062600136,-0.4386012554,-0.1666134894
23.43511463,1.149343014,-0.2793181241,-0.1867720485
23.44511463,1.248914003,-0.06750060618,-0.1637118906
23.45511463,1.34497261,0.133779496,-0.02000583708
23.46511463,1.351844788,0.1982257664,0.08170322329
23.47511463,1.331533551,0.1412625909,0.1412625909
23.48511463,1.285871387,-0.0606283769,0.1963931769
23.49511463,1.241583586,-0.2784018219,0.2489275932
23.50511463,1.261283994,-0.5074763298,0.2623666227
23.51511463,1.309236884,-0.6195700765,0.248164013
23.52511463,1.34497261,-0.63743788,0.2029599845
23.53511463,1.337336779,-0.6188064814,0.1603521258
23.54511463,1.322065115,-0.5612324476,0.1362229437
23.55511463,1.296408772,-0.4671591818,0.1307251602
23.56511463,1.263116598,-0.3352122903,0.1449277848
23.57511463,1.239903688,-0.2434297949,0.1429424733
23.58511463,1.286329508,-0.2183843255,0.1392772794
23.59511463,1.381166339,-0.2370157093,0.1379028261
23.60511463,1.453401089,-0.2263255715,0.1340849251
23.61511463,1.521054506,-0.2365575731,0.1278235465
23.62511463,1.559386253,-0.2655736506,0.130114302
23.63511463,1.57145083,-0.2348776907,0.1412625909
23.64511463,1.563356876,-0.1687515229,0.1537853181
23.65511463,1.475545049,-0.112093769,0.1505782902
23.66511463,1.327104688,-0.1342376322,0.09208793938
23.67511463,1.203404546,-0.1574505121,0.05070181563
23.68511463,1.206153393,-0.1821905524,0.08597928286
23.69511463,1.318399906,-0.2229658216,0.1380555481
23.70511463,1.463174939,-0.2130392492,0.1939497143
23.71511463,1.550528765,-0.2234239578,0.2585487068
23.72511463,1.601535916,-0.2883284092,0.3397938013
23.73511463,1.656208396,-0.3469714522,0.3967569768
23.74511463,1.749823451,-0.3753767014,0.4062253833
23.75511463,1.780672193,-0.279165417,0.3714060783
23.76511463,1.691180468,-0.1695151031,0.3086396754
23.77511463,1.605201125,-0.1678352207,0.2855795026
23.78511463,1.568396568,-0.1829541475,0.286801219
23.79511463,1.536173344,-0.1501201391,0.2735149264
23.80511463,1.507157326,-0.07803803682,0.2641992271
23.81511463,1.491427541,-0.1039998084,0.2593123019
23.82511463,1.522581577,-0.145385921,0.2761110961
23.83511463,1.597259879,-0.129808858,0.263741076
23.84511463,1.600466967,-0.07849618047,0.306807071
23.85511463,1.563051462,-0.1401935667,0.3101668358
23.86511463,1.50593555,-0.1960877478,0.3136793077
23.87511463,1.443780065,-0.2287690341,0.3281873465
23.88511463,1.398576021,-0.2538145185,0.3428481221
23.89511463,1.344819784,-0.2741257846,0.3514002264
23.90511463,1.33932209,-0.3318525553,0.3572034538
23.91511463,1.362993121,-0.3608686328,0.3399465084
23.92511463,1.386511445,-0.3874412775,0.3176499307
23.93511463,1.369101763,-0.4856378734,0.2964223623
23.94511463,1.399492264,-0.5610797405,0.2678644061
23.95511463,1.397659659,-0.5097670555,0.2852740586
23.96511463,1.315651059,-0.5291619897,0.29138273
23.97511463,1.275792122,-0.4792237878,0.275958389
23.98511463,1.299157619,-0.3672827184,0.2666426897
23.99511463,1.316414595,-0.3721696436,0.2825251818
24.00511463,1.337336779,-0.3886630237,0.2115120888
24.01511463,1.312443972,-0.3532328308,0.2020436823
24.02511463,1.292590857,-0.3411682248,0.18875736
24.03511463,1.312443972,-0.3532328308,0.1812742651
24.04511463,1.319927096,-0.3665191531,0.1715004146
24.05511463,1.301295638,-0.3446807265,0.1667662114
24.06511463,1.283427835,-0.2884811163,0.157297805
24.07511463,1.259451389,-0.2212859392,0.1624901593
24.08511463,1.22951901,-0.1837177277,0.1762346178
24.09511463,1.229366302,-0.1655444801,0.2105957866
24.10511463,1.227991819,-0.1508837193,0.2301434875
24.11511463,1.193477988,-0.1389718503,0.2327396572
24.12511463,1.140027285,-0.08445212245,0.2403754741
24.13511463,1.034500241,0.02962696366,0.2448042482
24.14511463,0.8964447379,0.08078692853,0.2417499274
24.15511463,0.7852672935,0.03161227703,0.2611449063
24.16511463,0.6068946123,0.05879577994,0.3141374588
24.17511463,0.4763221741,0.09926560521,0.2730567753
24.18511463,0.2419026345,0.2002110779,0.1715004146
24.19511463,0.1586722434,0.06459899992,0.1317941695
24.20511463,0.1744020283,-0.1423316002,0.1075122803
24.21511463,0.2350303978,-0.2971859276,0.0968221426
24.22511463,0.2631302178,-0.4013384581,0.1230893433
24.23511463,0.2341141105,-0.4408919811,0.1362229437
24.24511463,0.1504255682,-0.4233296216,0.1206458881
24.25511463,0.008399397135,-0.3561344445,0.1065959856
24.26511463,-0.1061378345,-0.3158173263,0.108275868
24.27511463,-0.2136501223,-0.2544253767,0.106290549
24.28511463,-0.2539672256,-0.1579086632,0.08979719132
24.29511463,-0.2151772827,-0.1230893433,0.06551529467
24.30511463,-0.1331686229,-0.1000291854,0.05085453019
24.31511463,-0.02855795063,-0.122020334,0.02733621933
24.32511463,0.04138612002,-0.2254092693,0.01572977938
24.33511463,0.1446223408,-0.3454442918,-0.005803219974
24.34511463,0.239917323,-0.4204280078,-0.003970623948
24.35511463,0.2881756723,-0.4567744732,0.01527163107
24.36511463,0.2771801054,-0.452192992,0.03726277873
24.37511463,0.2530509233,-0.3860668242,0.001069014193
24.38511463,0.2727513313,-0.2860376537,-0.07177666575
24.39511463,0.2623666227,-0.2273945808,-0.07131851465
24.40511463,0.216246292,-0.279165417,-0.09483683109
24.41511463,0.1305724531,-0.2999348342,-0.07147123665
24.42511463,0.0601702258,-0.2700024247,-0.07498370856
24.43511463,0.02046398632,-0.2287690341,-0.07590000331
24.44511463,-0.008552113548,-0.1603521258,-0.08643743396
24.45511463,-0.006108652335,-0.05115996301,-0.1004873365
24.46511463,0.02229658142,0.05467243865,-0.1110247597
24.47511463,0.04627304152,0.1004873365,-0.137597397
24.48511463,0.04764748737,0.0956004113,-0.1437060535
24.49511463,0.02443460934,0.08063421398,-0.1401935667
24.50511463,0.0003054326226,0.037415497,-0.1403462887
24.51511463,-0.03207042441,-0.03405573592,-0.1394299865
24.52511463,-0.06215553731,-0.09208793938,-0.133626774
24.53511463,-0.08032877743,-0.1058324054,-0.1287398487
24.54511463,-0.08552113175,-0.0849102661,-0.129808858
24.55511463,-0.07605272532,-0.04810563847,-0.1308778822
24.56511463,-0.0723875314,-0.04566217586,-0.1296561509
24.57511463,-0.06627888232,-0.04184427112,-0.1223257631
24.58511463,-0.04780020565,-0.0479529202,-0.1113301888
24.59511463,-0.0282525178,-0.04398229718,-0.1027780771
24.60511463,-0.006414085161,-0.02046398632,-0.1003346145
24.61511463,-0.001832595794,0.009010262787,-0.1026253626
24.62511463,-0.02168571576,0.03451388702,-0.09514226019
24.63511463,-0.05513058975,0.05971207842,-0.07910704613
24.64511463,-0.06643159688,0.08643743396,-0.06307183951
24.65511463,-0.06047565863,0.1073595658,-0.05314527452
24.66511463,-0.03970624134,0.1160643995,-0.04703662544
24.67511463,-0.02260201424,0.113926366,-0.04581489414
24.68511463,-0.005497787148,0.1226311997,-0.04214970022
24.69511463,0.00320704258,0.1250746548,-0.03481931984
24.70511463,0.002901609987,0.1423316002,-0.03359758854
24.71511463,0.00122173049,0.1850921661,-0.03207042441
24.72511463,-0.006108652335,0.1814269722,-0.03084869497
24.73511463,-0.02306016348,0.1615738571,-0.02489275858
24.74511463,-0.03405573592,0.1565342247,-0.02122756653
24.75511463,-0.04092797264,0.1195768714,-0.01649336144
24.76511463,-0.04703662544,0.1098030284,-0.0140499007
24.77511463,-0.04657847434,0.06933320314,-0.01313360315
24.78511463,-0.03802636266,0.07788532227,-0.0155770639
24.79511463,-0.01954768784,0.06475171447,-0.0155770639
24.80511463,0.008399397135,0.09071348608,-0.01924225502
24.81511463,0.01450804994,0.09208793938,-0.02168571576
24.82511463,0.01069014147,0.1030835137,-0.02153299935
24.83511463,0.004581489135,0.1030835137,-0.02641992271
24.84511463,0.0,0.08216137439,-0.02657263726
24.85511463,-0.009621127509,0.06001751125,-0.02901609987
24.86511463,-0.02168571576,0.04016438872,-0.02672535367
24.87511463,-0.02412917651,0.03039054573,-0.02794708498
24.88511463,-0.02764165215,0.02550362423,-0.03039054573
24.89511463,-0.0251981914,0.02672535367,-0.03161227703
24.90511463,-0.01191187184,0.0354301855,-0.03161227703
24.91511463,0.00167987938,0.03313944116,-0.02672535367
24.92511463,0.00167987938,0.03191770986,-0.02199114859
24.93511463,-0.008246680722,0.0415388383,-0.01450804994
24.94511463,-0.01939497143,0.05726861581,-0.009468411095
24.95511463,-0.01695151068,0.05482515693,-0.007177666761
24.96511463,-0.01328631863,0.05986479297,-0.004581489135
24.97511463,-0.004734205548,0.06352998316,-0.007024950348
24.98511463,0.002596177394,0.05757404864,-0.005955935922
24.99511463,0.0003054326226,0.04764748737,-0.005955935922
25.00511463,-0.004428773187,0.03909537569,-0.003512475174
25.01511463,-0.007941247895,0.02061670274,-0.0
25.02511463,-0.01267545391,0.0009162978968,0.003512475174
25.03511463,-0.0125227375,-0.01756237634,0.008399397135
25.04511463,-0.01496619824,-0.01878410578,0.009621127509
25.05511463,-0.01481348183,-0.02611448988,0.01191187184
25.06511463,-0.02092213556,-0.02871066704,0.01435533352
25.07511463,-0.01863138936,-0.01511891466,0.01206458826
25.08511463,-0.006566801574,0.01069014147,0.0109955743
25.09511463,-0.001832595794,0.02183843218,0.0109955743
25.10511463,-0.0006108652451,0.01695151068,0.009773843922
25.11511463,-0.002901609987,0.0009162978968,0.009621127509
25.12511463,-0.007788531948,-0.001527163084,0.008399397135
25.13511463,-0.01145372353,0.007024950348,0.006108652335
25.14511463,-0.007788531948,0.008246680722,0.00244346098
25.15511463,-0.00167987938,0.007177666761,-0.0
25.16511463,0.006872233935,0.006108652335,-0.006261368748
25.17511463,0.01145372353,0.03313944116,-0.007330383174
25.18511463,0.01023199316,0.04291328415,-0.008399397135
25.19511463,0.002901609987,0.03909537569,-0.007177666761
25.20511463,-0.0007635815418,0.03054326214,-0.009773843922
25.21511463,0.002901609987,0.0354301855,-0.0109955743
25.22511463,0.01023199316,0.03924809024,-0.009621127509
25.23511463,0.01023199316,0.03680463135,-0.009773843922
25.24511463,0.005345070735,0.03787364438,-0.008399397135
25.25511463,0.0004581489484,0.0293215327,-0.008552113548
25.26511463,-0.003054326167,0.02183843218,-0.006108652335
25.27511463,-0.001832595794,0.02183843218,-0.00244346098
25.28511463,-0.005650503561,0.02916881628,0.00122173049
25.29511463,-0.008093964309,0.02672535367,0.004886921961
25.30511463,-0.01160643995,0.01924225502,0.0109955743
25.31511463,-0.01298088674,0.02779436857,0.01343903504
25.32511463,-0.01313360315,0.03756821156,0.0160352122
25.33511463,-0.008399397135,0.05726861581,0.0160352122
25.34511463,-0.01084285788,0.05604688451,0.01725694351
25.35511463,-0.009621127509,0.05360342562,0.0160352122
25.36511463,-0.008399397135,0.05849034712,0.01237002108
25.37511463,-0.003512475174,0.05619960278,0.008704829961
25.38511463,0.001527163084,0.05375614017,0.005039638374
25.39511463,0.003970623948,0.04764748737,0.002596177394
25.40511463,0.004123340361,0.0354301855,0.00122173049
25.41511463,0.006566801574,0.04031710699,-0.002290744567
25.42511463,0.006566801574,0.03420845419,-0.003665191587
25.43511463,0.007941247895,0.02687807009,-0.007330383174
25.44511463,0.00320704258,0.009773843922,-0.007330383174
25.45511463,-0.002901609987,0.001069014193,-0.007483099122
25.46511463,-0.01023199316,-0.005192354787,-0.007483099122
25.47511463,-0.01496619824,-0.01374446787,-0.007483099122
25.48511463,-0.01130100712,-0.01130100712,-0.006261368748
25.49511463,-0.005345070735,-0.001374446787,-0.006261368748
25.50511463,-0.009010262787,-0.0003054326226,-0.006261368748
25.51511463,-0.01511891466,-0.005192354787,-0.003817907767
25.52511463,-0.01267545391,-0.003970623948,-0.005039638374
25.53511463,-0.01267545391,-0.006414085161,-0.003817907767
25.54511463,-0.0125227375,-0.01007927675,-0.002596177394
25.55511463,-0.01511891466,-0.005192354787,-0.003817907767
25.56511463,-0.01863138936,-0.01023199316,-0.005039638374
25.57511463,-0.01740965992,-0.01756237634,-0.005039638374
25.58511463,-0.01863138936,-0.01511891466,-0.005039638374
25.59511463,-0.01496619824,-0.008857546374,-0.003817907767
25.60511463,-0.009010262787,-0.002748893574,-0.002596177394
25.61511463,-0.0004581489484,0.007177666761,-0.001374446787
25.62511463,0.006719517522,0.02199114859,-0.00244346098
25.63511463,0.005345070735,0.03787364438,-0.002290744567
25.64511463,0.002901609987,0.04031710699,-0.002290744567
25.65511463,0.003970623948,0.04520402849,-0.001069014193
25.66511463,-0.003359758761,0.0415388383,-0.001069014193
25.67511463,-0.004428773187,0.03649919853,0.001374446787
25.68511463,-0.01053742506,0.02672535367,0.00122173049
25.69511463,-0.01160643995,0.01191187184,-0.0
25.70511463,-0.01389718428,0.003359758761,-0.0
25.71511463,-0.01878410578,-0.009010262787,0.001069014193
25.72511463,-0.01618792862,-0.01756237634,-0.0001527163113
25.73511463,-0.009926560335,-0.02107485011,-0.002596177394
25.74511463,-0.007483099122,-0.01985312067,-0.005039638374
25.75511463,-0.003970623948,-0.007483099122,-0.003817907767
25.76511463,0.0009162978968,-0.001374446787,-0.003817907767
25.77511463,0.002138028387,-0.003817907767,-0.006261368748
25.78511463,0.004581489135,0.001069014193,-0.005039638374
25.79511463,0.00320704258,0.006108652335,-0.006261368748
25.80511463,-0.0004581489484,0.005955935922,-0.006261368748
25.81511463,-0.002901609987,0.002290744567,-0.007483099122
25.82511463,-0.001527163084,-0.003817907767,-0.008704829961
25.83511463,0.0009162978968,-0.003817907767,-0.009926560335
25.84511463,0.002138028387,-0.006261368748,-0.006261368748
25.85511463,0.003359758761,-0.007483099122,-0.001374446787
25.86511463,0.005955935922,-0.01237002108,-0.001374446787
25.87511463,0.008246680722,-0.007483099122,0.001069014193
25.88511463,0.008246680722,-0.009926560335,0.001069014193
25.89511463,0.005803219974,-0.01114829071,0.002290744567
25.90511463,0.003359758761,0.001069014193,0.002290744567
25.91511463,-0.002901609987,0.005955935922,0.001069014193
25.92511463,-0.01145372353,0.005803219974,0.00244346098
25.93511463,-0.01756237634,-0.002901609987,0.004734205548
25.94511463,-0.02229658142,-0.01511891466,0.004734205548
25.95511463,-0.0125227375,-0.01618792862,0.003512475174
25.96511463,-0.01481348183,-0.02977968007,0.007024950348
25.97511463,-0.01237002108,-0.02733621933,0.007024950348
25.98511463,-0.007483099122,-0.02229658142,0.009468411095
25.99511463,-0.0004581489484,0.007177666761,0.008399397135
26.00511463,-0.01771509275,0.01313360315,0.009773843922
26.01511463,-0.03634648025,0.0300851129,0.01237002108
26.02511463,-0.04856378585,0.02733621933,0.01481348183
26.03511463,-0.06322455406,0.01985312067,0.01725694351
26.04511463,-0.0853684172,0.0232128799,0.02580905706
26.05511463,-0.1206458881,-0.005345070735,0.03298672289
26.06511463,-0.09834930301,-0.01863138936,0.02687807009
26.07511463,-0.01145372353,-0.0003054326226,0.01328631863
26.08511463,0.0731511116,0.005497787148,-0.002596177394
26.09511463,0.1151480973,-0.01847867295,-0.01634064503
26.10511463,0.1172861308,0.0160352122,-0.02947424725
26.11511463,0.08323039114,-0.01145372353,-0.01374446787
26.16514637,0.1075122803,0.01084285788,-0.008857546374
26.17514637,0.09972374886,0.04764748737,-0.007330383174
26.18514637,0.08475755155,0.07437284291,-0.01084285788
26.19514637,0.07345654815,0.09392052889,-0.01435533352
26.20514637,0.06246097013,0.09743300825,-0.01191187184
26.21514637,0.04657847434,0.08613199741,-0.005803219974
26.22514637,0.04673119262,0.07391469181,-0.007177666761
26.23514637,0.05177082866,0.05314527452,-0.009621127509
26.24514637,0.05696318299,0.03237585723,-0.01343903504
26.25514637,0.05971207842,0.01038470957,-0.01481348183
26.26514637,0.05375614017,-0.01542434748,-0.01740965992
26.27514637,0.04291328415,-0.02535090782,-0.01618792862
26.28514637,0.03909537569,-0.01924225502,-0.01740965992
26.29514637,0.03649919853,-0.004581489135,-0.01847867295
26.30514637,0.03512475267,0.005192354787,-0.01481348183
26.31514637,0.03756821156,0.005192354787,-0.01237002108
26.32514637,0.02886338346,0.0125227375,-0.007483099122
26.33514637,0.02153299935,0.01970040426,-0.003665191587
26.34514637,0.02504547499,0.03451388702,-0.00244346098
26.35514637,0.03726277873,0.04321871698,-0.006108652335
26.36514637,0.04703662544,0.04214970022,-0.008552113548
26.37514637,0.05177082866,0.05314527452,-0.01328631863
26.38514637,0.04444044828,0.05803219974,-0.01695151068
26.39514637,0.03344487399,0.05299255997,-0.01695151068
26.40514637,0.01863138936,0.05039638281,-0.01572977938
26.41514637,0.01389718428,0.04291328415,-0.01206458826
26.42514637,0.01618792862,0.05039638281,-0.008399397135
26.43514637,0.02244929783,0.05039638281,-0.004734205548
26.44514637,0.01863138936,0.05161811411,-0.002290744567
26.45514637,0.02351831272,0.05283984542,-0.003512475174
26.46514637,0.02748893574,0.03573561832,-0.00244346098
26.47514637,0.03252857551,0.01985312067,-0.004886921961
26.48514637,0.03145955876,0.002596177394,-0.006261368748
26.49514637,0.02061670274,-0.006108652335,-0.005039638374
26.50514637,0.01084285788,-0.01343903504,-0.006261368748
26.51514637,0.003512475174,-0.02092213556,-0.008857546374
26.52514637,0.007177666761,-0.0171042271,-0.0160352122
26.53514637,0.01817324013,-0.008399397135,-0.0160352122
26.54514637,0.03161227703,-0.002138028387,-0.01481348183
26.55514637,0.04260785133,0.002748893574,-0.01237002108
26.56514637,0.04871650413,0.004123340361,-0.007483099122
26.57514637,0.04245513305,0.01130100712,-0.006261368748
26.58514637,0.02901609987,0.005039638374,-0.003817907767
26.59514637,0.02046398632,0.00122173049,-0.0001527163113
26.60514637,0.02031126991,0.01237002108,-0.002596177394
26.61514637,0.02886338346,0.02474004216,-0.00122173049
26.62514637,0.0313068442,0.02718350291,0.00122173049
26.63514637,0.03497203439,0.02596177347,0.008552113548
26.64514637,0.0410806872,0.02718350291,0.0109955743
26.65514637,0.04718934,0.02351831272,0.01695151068
26.66514637,0.05100724846,0.01863138936,0.01695151068
26.67514637,0.04612032697,0.01007927675,0.01572977938
26.68514637,0.04382958263,0.005192354787,0.01572977938
26.69514637,0.04016438872,0.001374446787,0.01450804994
26.70514637,0.03894266114,0.0001527163113,0.01572977938
26.71514637,0.03527746722,-0.003512475174,0.01572977938
26.72514637,0.03161227703,-0.003512475174,0.01450804994
26.73514637,0.03023782931,0.001374446787,0.01084285788
26.74514637,0.02657263726,0.009926560335,0.009621127509
26.75514637,0.02153299935,0.009773843922,0.008399397135
26.76514637,0.01160643995,0.01954768784,0.003665191587
26.77514637,-0.0007635815418,0.03054326214,-0.00244346098
26.78514637,-0.009621127509,0.05253441259,-0.005955935922
26.79514637,-0.02901609987,0.03878994286,-0.01084285788
26.80514637,-0.03145955876,0.03268129006,-0.009621127509
26.81514637,-0.02657263726,0.03634648025,-0.008399397135
26.82514637,-0.02535090782,0.03268129006,-0.005955935922
26.83514637,-0.02153299935,0.02901609987,-0.005955935922
26.84514637,-0.01542434748,0.02550362423,-0.009773843922
26.85514637,-0.01160643995,0.009621127509,-0.01466076635
26.86514637,-0.01007927675,-0.006414085161,-0.01237002108
26.87514637,-0.01237002108,-0.02351831272,-0.007483099122
26.88514637,-0.01725694351,-0.03222314268,-0.0003054326226
26.89514637,-0.01847867295,-0.03100141138,0.005803219974
26.90514637,-0.0282525178,-0.04092797264,0.01191187184
26.91514637,-0.04031710699,-0.05467243865,0.01924225502
26.92514637,-0.03909537569,-0.05100724846,0.02290744707
26.93514637,-0.03191770986,-0.03863722831,0.02901609987
26.94514637,-0.02107485011,-0.01893682219,0.03039054573
26.95514637,-0.01130100712,-0.006566801574,0.02672535367
26.96514637,-0.009010262787,0.0009162978968,0.01939497143
26.97514637,-0.005345070735,0.003359758761,0.008399397135
26.98514637,-0.01023199316,0.0009162978968,-0.001374446787
26.99514637,-0.02122756653,-0.003970623948,-0.006261368748
27.00514637,-0.02855795063,-0.01145372353,-0.01359175146
27.01514637,-0.03084869497,-0.02000583708,-0.01359175146
27.02514637,-0.03207042441,-0.01771509275,-0.007483099122
27.03514637,-0.02840523422,-0.02000583708,-0.002596177394
27.04514637,-0.02229658142,-0.02122756653,-0.0001527163113
27.05514637,-0.02107485011,-0.02367102914,0.005955935922
27.06514637,-0.0160352122,-0.03100141138,0.005803219974
27.07514637,-0.009926560335,-0.03084869497,0.0009162978968
27.08514637,-0.0001527163113,-0.02092213556,-0.002596177394
27.09514637,0.003359758761,-0.01114829071,-0.003817907767
27.10514637,0.008246680722,-0.00122173049,-0.003817907767
27.11514637,0.001985311974,0.001069014193,-0.001374446787
27.12514637,-0.01023199316,-0.003970623948,0.003512475174
27.13514637,-0.02474004216,-0.02138028294,0.004734205548
27.14514637,-0.0232128799,-0.03970624134,0.004581489135
27.15514637,-0.009773843922,-0.04199698567,0.007024950348
27.16514637,0.00244346098,-0.03940080851,0.004581489135
27.17514637,0.01221730467,-0.03191770986,0.003359758761
27.18514637,0.02076941915,-0.01954768784,0.002138028387
27.19514637,0.01924225502,-0.00122173049,0.001069014193
27.20514637,0.01542434748,0.008552113548,-0.002596177394
27.21514637,0.004581489135,0.001069014193,-0.003817907767
27.22514637,-0.006414085161,-0.01374446787,-0.002596177394
27.23514637,-0.01496619824,-0.02107485011,-0.007483099122
27.24514637,-0.02107485011,-0.02367102914,-0.008704829961
27.25514637,-0.01374446787,-0.0125227375,-0.01114829071
27.26514637,0.001985311974,0.0109955743,-0.01221730467
27.27514637,0.009162978269,0.02199114859,-0.01221730467
27.28514637,0.01282817032,0.0282525178,-0.0109955743
27.29514637,0.002901609987,0.03176499158,-0.009773843922
27.30514637,-0.00320704258,0.0354301855,-0.01084285788
27.31514637,-0.008093964309,0.03420845419,-0.01206458826
27.32514637,-0.001985311974,0.03665191308,-0.01084285788
27.33514637,0.0004581489484,0.0293215327,-0.01221730467
27.34514637,0.001832595794,0.0232128799,-0.009773843922
27.35514637,0.001985311974,0.009773843922,-0.008552113548
27.36514637,-0.0003054326226,-0.002596177394,-0.003817907767
27.37514637,-0.001527163084,-0.007483099122,0.001069014193
27.38514637,0.004734205548,-0.01359175146,0.003512475174
27.39514637,0.01069014147,-0.006261368748,0.004734205548
27.40514637,0.01435533352,0.00244346098,0.004734205548
27.41514637,0.01542434748,0.01588249579,0.003665191587
27.42514637,0.02138028294,0.03313944116,0.004886921961
27.43514637,0.02122756653,0.03802636266,0.006108652335
27.44514637,0.01634064503,0.03558290005,0.003665191587
27.45514637,0.01038470957,0.02687807009,-0.0
27.46514637,0.01038470957,0.0232128799,-0.004886921961
27.47514637,0.006872233935,0.01343903504,-0.007330383174
27.48514637,0.009315694682,0.006108652335,-0.006261368748
27.49514637,0.01206458826,-0.0109955743,-0.002596177394
27.50514637,0.01817324013,-0.0171042271,0.0009162978968
27.51514637,0.01817324013,-0.0171042271,0.004581489135
27.52514637,0.01328631863,-0.01114829071,0.005955935922
27.53514637,0.01313360315,0.00244346098,0.003512475174
27.54514637,0.0190895386,0.02092213556,0.00244346098
27.55514637,0.01649336144,0.03436116874,0.00122173049
27.56514637,0.01389718428,0.03924809024,-0.00122173049
27.57514637,0.01649336144,0.03436116874,-0.007330383174
27.58514637,0.02260201424,0.03084869497,-0.008552113548
27.59514637,0.02901609987,0.01130100712,-0.008704829961
27.60514637,0.02794708498,-0.009621127509,-0.006261368748
27.61514637,0.02443460934,-0.01954768784,-0.005192354787
27.62514637,0.01466076635,-0.03313944116,-0.001527163084
27.63514637,0.002596177394,-0.04550946131,0.003359758761
27.64514637,-0.003512475174,-0.04932736978,0.007024950348
27.65514637,-0.001069014193,-0.0430659987,0.008246680722
27.66514637,0.003665191587,-0.02718350291,0.005803219974
27.67514637,0.006108652335,-0.02840523422,0.01191187184
27.68514637,0.008552113548,-0.02458732575,0.01069014147
27.69514637,0.01343903504,-0.02580905706,0.008246680722
27.70514637,0.0109955743,-0.0282525178,0.008246680722
27.71514637,0.01343903504,-0.0282525178,0.007024950348
27.72514637,0.01588249579,-0.02458732575,0.004581489135
27.73514637,0.01954768784,-0.02076941915,0.003359758761
27.74514637,0.01695151068,-0.01221730467,0.004734205548
27.75514637,0.01679879427,0.0,0.007177666761
27.76514637,0.02031126991,0.009773843922,0.007177666761
27.77514637,0.02779436857,0.01114829071,0.008399397135
27.78514637,0.03634648025,0.01130100712,0.007177666761
27.79514637,0.04382958263,0.002748893574,0.004734205548
27.80514637,0.04749477282,-0.004581489135,0.005955935922
27.81514637,0.04382958263,-0.003359758761,0.007177666761
27.82514637,0.04260785133,0.0003054326226,0.007177666761
27.83514637,0.04245513305,0.006414085161,0.008399397135
27.84514637,0.04245513305,0.01007927675,0.009621127509
27.85514637,0.04489859566,0.01985312067,0.008399397135
27.86514637,0.04352414981,0.02718350291,0.0109955743
27.87514637,0.04612032697,0.01863138936,0.01084285788
27.88514637,0.05100724846,0.01756237634,0.01206458826
27.89514637,0.05604688451,0.009010262787,0.01206458826
27.90514637,0.06337726861,0.009010262787,0.01328631863
27.91514637,0.06826419383,0.007941247895,0.01206458826
27.92514637,0.07559457421,0.0140499007,0.009621127509
27.93514637,0.07681630552,0.0140499007,0.01084285788
27.94514637,0.07925976813,0.01175915636,0.008399397135
27.95514637,0.07925976813,0.009315694682,0.008399397135
27.96514637,0.08307767659,0.006872233935,0.008399397135
27.97514637,0.08185594529,-0.0004581489484,0.009468411095
27.98514637,0.08200865984,-0.006719517522,0.01069014147
27.99514637,0.07712173462,-0.01649336144,0.0155770639
28.00514637,0.06734789163,-0.02412917651,0.02168571576
28.01514637,0.06505715102,-0.03023782931,0.02641992271
28.02514637,0.07254024595,-0.03878994286,0.03375030309
28.03514637,0.07742717117,-0.04734205827,0.04337143153
28.04514637,0.0849102661,-0.04978551716,0.04703662544
28.05514637,0.0849102661,-0.04489859566,0.05192354694
28.06514637,0.07864890248,-0.03512475267,0.04963280261
28.07514637,0.07971791178,-0.0239764601,0.04474587739
28.08514637,0.07345654815,-0.01924225502,0.03756821156
28.09514637,0.06750060618,-0.03145955876,0.03375030309
28.10514637,0.06520986557,-0.04749477282,0.03497203439
28.11514637,0.05787948146,-0.05115996301,0.03497203439
28.12514637,0.04444044828,-0.04886921868,0.03985895589
28.13514637,0.04673119262,-0.03665191308,0.0423024185
28.14514637,0.06352998316,-0.008246680722,0.04489859566
28.15514637,0.07437284291,0.01511891466,0.04138612002
28.16514637,0.06841690838,0.0004581489484,0.03634648025
28.17514637,0.05299255997,-0.04642575979,0.03863722831
28.18514637,0.03985895589,-0.0833831057,0.04214970022
28.19514637,0.01802052557,-0.1130100712,0.04688390717
28.20514637,-0.002901609987,-0.1084285825,0.05177082866
28.21514637,-0.009010262787,-0.102319926,0.06032294407
28.22514637,0.004123340361,-0.07773260027,0.07024950534
28.23514637,0.02107485011,-0.04932736978,0.0716239512
28.24514637,0.03665191308,-0.01481348183,0.06078109145
28.25514637,0.05146539584,-0.02061670274,0.04367686436
28.26514637,0.04948008433,-0.07086037099,0.02993239649
28.27514637,0.04398229718,-0.1235474944,0.01863138936
28.28514637,0.02748893574,-0.1973094791,0.01466076635
28.29514637,0.01954768784,-0.2489275932,0.01069014147
28.30514637,0.02947424725,-0.2573269904,0.009468411095
28.31514637,0.05879577994,-0.2411390543,0.01679879427
28.32514637,0.109955743,-0.2112066597,0.02779436857
28.33514637,0.1734857261,-0.1737911552,0.04138612002
28.34514637,0.2293798923,-0.1302670091,0.04886921868
28.35514637,0.2695443034,-0.08827003092,0.05268712714
28.36514637,0.2777909636,-0.06597344577,0.05283984542
28.37514637,0.2730567753,-0.07101308554,0.05757404864
28.38514637,0.2706133127,-0.08323039114,0.05757404864
28.39514637,0.2808452845,-0.1137736514,0.05742133409
28.40514637,0.3239113092,-0.1195768714,0.05971207842
28.41514637,0.3819434941,-0.1531744599,0.0545197241
28.42514637,0.4401284158,-0.2052507252,0.05299255997
28.43514637,0.4967861474,-0.220522359,0.05039638281
28.44514637,0.5335907936,-0.2078468949,0.0613919571
28.45514637,0.5555819273,-0.196698606,0.07971791178
28.46514637,0.5772676468,-0.1660026312,0.09926560521
28.47514637,0.6049093008,-0.1056796908,0.1166752651
28.48514637,0.6623306274,-0.07941248268,0.1313360333
28.49514637,0.7247915864,-0.06643159688,0.1423316002
28.50514637,0.8266534209,-0.06291911751,0.1543961912
28.51514637,0.9285151958,-0.0606283769,0.1579086632
28.52514637,0.9950994849,-0.07452555746,0.1394299865
28.53514637,1.00670588,-0.1307251602,0.1256855279
28.54514637,0.9651671052,-0.2672535479,0.1175915599
28.55514637,0.8944594264,-0.4260784984,0.1072068512
28.56514637,0.8147414923,-0.5506950021,0.1053742543
28.57514637,0.7409795523,-0.6459900141,0.1087340117
28.58514637,0.6948592067,-0.6992880106,0.1096503139
28.59514637,0.653167665,-0.7046330571,0.1110247597
28.60514637,0.6320928335,-0.681420207,0.1001819
28.61514637,0.5995642543,-0.6290385127,0.07849618047
28.62514637,0.5731443167,-0.578794837,0.04825835302
28.63514637,0.5439754725,-0.495564431,0.01588249579
28.64514637,0.5131267905,-0.4824308157,-0.007177666761
28.65514637,0.5007568002,-0.4775438905,-0.01206458826
28.66514637,0.5141957998,-0.4725042582,-0.01572977938
28.67514637,0.5335907936,-0.4416555762,-0.01435533352
28.68514637,0.5320636034,-0.4147774875,-0.006872233935
28.69514637,0.4967861474,-0.4396702647,0.001527163084
28.70514637,0.4651738703,-0.4743368626,0.002596177394
28.71514637,0.4593706727,-0.5050328374,-0.008552113548
28.72514637,0.49922961,-0.5523748994,-0.02474004216
28.73514637,0.5942191482,-0.6039929986,-0.03375030309
28.74514637,0.6792821288,-0.6360634565,-0.04138612002
28.75514637,0.7124215961,-0.6282749176,-0.05482515693
28.76514637,0.7009678483,-0.5988006592,-0.0850629881
28.77514637,0.6464481354,-0.5587889552,-0.1226311997
28.78514637,0.6029239893,-0.5099197626,-0.1528690308
28.79514637,0.5936083198,-0.4437935948,-0.1780672222
28.80514637,0.6238461137,-0.3930917978,-0.1852448881
28.81514637,0.7089090943,-0.3211624026,-0.1739438772
28.82514637,0.8061894178,-0.22434026,-0.1870774776
28.83514637,0.8982773423,-0.1240056455,-0.1951714456
28.84514637,0.9506590366,-0.07941248268,-0.173027575
28.85514637,0.9946413636,-0.05955936015,-0.1204931661
28.86514637,1.005942345,-0.0731511116,-0.06933320314
28.87514637,0.9911288619,-0.06872233748,-0.03390302137
28.88514637,0.9778425694,-0.08735372871,-0.01695151068
28.89514637,0.9892962575,-0.1191187203,-0.01221730467
28.90514637,1.024115562,-0.1566869318,-0.0125227375
28.91514637,1.100168347,-0.1608102769,-0.01634064503
28.92514637,1.18462038,-0.1354593635,0.005650503561
28.93514637,1.215163708,-0.1131627858,0.037415497
28.94514637,1.207527876,-0.08521570265,0.07055493444
28.95514637,1.196074128,-0.05115996301,0.08674286306
28.96514637,1.200808406,-0.02779436857,0.08918632567
28.97514637,1.225395679,-0.03985895589,0.1026253626
28.98514637,1.231962442,-0.07910704613,0.1182024255
28.99514637,1.250135779,-0.1574505121,0.1360702366
29.00514637,1.258687854,-0.2725986242,0.1403462887
29.01514637,1.254869938,-0.3769038618,0.1311833113
29.02514637,1.249677539,-0.4529565871,0.1296561509
29.03514637,1.290300131,-0.4634940028,0.1368338168
29.04514637,1.377959251,-0.4013384581,0.1467603743
29.05514637,1.431104541,-0.3174972236,0.1678352207
29.06514637,1.403462887,-0.2518292069,0.2145664245
29.07514637,1.343750834,-0.2941316068,0.1999056488
29.08514637,1.29396534,-0.3593414724,0.1568396538
29.09514637,1.260520458,-0.4356996417,0.1479821056
29.10514637,1.285260439,-0.4491386712,0.1759291887
29.11514637,1.370476127,-0.3869831264,0.1931861341
29.12514637,1.495856285,-0.2837468982,0.1826487035
29.13514637,1.563204169,-0.1566869318,0.1708895564
29.14514637,1.602910399,-0.0838412568,0.1748601794
29.15514637,1.623832583,-0.0849102661,0.177303642
29.16514637,1.640173197,-0.1240056455,0.1820378453
29.17514637,1.669647455,-0.1285871267,0.1879937798
29.18514637,1.695303798,-0.1114829108,0.2466368377
29.19514637,1.669647455,-0.112093769,0.3138320148
29.20514637,1.594969153,-0.1314887404,0.3468187451
29.21514637,1.517389297,-0.1104138941,0.3544545472
29.22514637,1.493107319,-0.02474004216,0.3451388776
29.23514637,1.555110216,0.03955352306,0.3587306142
29.24514637,1.622305393,0.06841690838,0.3686571717
29.25514637,1.673770785,0.07498370856,0.408821553
29.26514637,1.677741408,0.054061573,0.4343251884
29.27514637,1.645518303,-0.03100141138,0.452192992
29.28514637,1.612531543,-0.05467243865,0.4375322461
29.29514637,1.581682801,-0.03863722831,0.3753767014
29.30514637,1.577712178,-0.01130100712,0.2974913716
29.31514637,1.579239368,0.06246097013,0.2648100853
29.32514637,1.565800309,0.05604688451,0.2965750694
29.33514637,1.550223231,0.02367102914,0.3330742717
29.34514637,1.515251279,-0.02367102914,0.3999640048
29.35514637,1.450041413,-0.117896989,0.4630358517
29.36514637,1.40636456,-0.2838996351,0.4818199575
29.37514637,1.427286625,-0.4062253833,0.4738787115
29.38514637,1.477988482,-0.4386012554,0.4356996417
29.39514637,1.475392342,-0.4250094891,0.4065308273
29.40514637,1.439809442,-0.4251621962,0.3625485301
29.41514637,1.428813815,-0.432492584,0.3320052624
29.42514637,1.437671304,-0.464104861,0.318413496
29.43514637,1.45279026,-0.499535054,0.3280346394
29.44514637,1.516167521,-0.5635231733,0.2616030276
29.45514637,1.51723659,-0.5523748994,0.2422080636
29.46514637,1.494939923,-0.5343543887,0.2605340183
29.47514637,1.444390893,-0.5164865851,0.2655736506
29.48514637,1.441336513,-0.4697553813,0.2194533348
29.49514637,1.425759435,-0.3901901841,0.2199114859
29.50514637,1.417665482,-0.3155119121,0.2362521291
29.51514637,1.387274981,-0.2277000248,0.2550362349
29.52514637,1.31717813,-0.2258674204,0.2295326144
29.53514637,1.174693823,-0.112246491,0.2231185287
29.54514637,1.065348983,-0.1012509167,0.2428189367
29.55514637,0.9859365225,-0.1366810948,0.2733621895
29.56514637,0.8092437387,-0.1446223408,0.2553416789
29.57514637,0.4557054639,-0.05222897977,0.1307251602
29.58514637,0.2741257846,0.04581489414,0.007024950348
29.59514637,0.2496911734,0.03329215571,-0.01007927675
29.60514637,0.2185370475,-0.1508837193,-0.0293215327
29.61514637,0.169056952,-0.3378084898,-0.001069014193
29.62514637,0.2044871449,-0.440739274,0.04474587739
29.63514637,0.2020436823,-0.5441282392,0.1039998084
29.64514637,0.145385921,-0.5300782919,0.1175915599
29.65514637,0.05879577994,-0.4718934,0.07299839705
29.66514637,-0.0300851129,-0.4236350358,0.02580905706
29.67514637,-0.1588249654,-0.3413209617,-0.02611448988
29.68514637,-0.2386955917,-0.334754169,-0.06627888232
29.69514637,-0.2475531399,-0.306501627,-0.08796459436
29.70514637,-0.1789835095,-0.2936734557,-0.03558290005
29.71514637,-0.07544185966,-0.3327688277,-0.09330966324
29.72514637,-0.003359758761,-0.3010038435,-0.1360702366
29.73514637,0.05833763257,-0.2215913683,-0.1759291887
29.74514637,0.1053742543,-0.1389718503,-0.1915062517
29.75514637,0.1404990107,-0.0968221426,-0.1876883507
29.76514637,0.1831068546,-0.05864306539,-0.1508837193
29.77514637,0.2359467,-0.06307183951,-0.1119410545
29.78514637,0.267711699,-0.157297805,-0.09056077152
29.79514637,0.2577851415,-0.2689334154,-0.09361509979
29.80514637,0.2414444834,-0.3352122903,-0.1036943719
29.81514637,0.2032654136,-0.3370448947,-0.09254608303
29.82514637,0.1168279797,-0.2877175212,-0.08735372871
29.83514637,0.0155770639,-0.2287690341,-0.09422596544
29.84514637,-0.04474587739,-0.1079704314,-0.1020144969
29.85514637,-0.08048149943,0.01298088674,-0.1098030284
29.86514637,-0.09376781434,0.112246491,-0.1079704314
29.87514637,-0.08429940045,0.251981914,-0.1059851199
29.88514637,-0.05757404864,0.3982841372,-0.1029307917
29.89514637,-0.04596760869,0.4608978331,-0.1038470939
29.90514637,-0.0484110713,0.4656320214,-0.0963639915
29.91514637,-0.04963280261,0.4581489265,-0.07452555746
29.92514637,-0.04046982154,0.412792176,-0.05283984542
29.93514637,-0.04169155285,0.29138273,-0.04245513305
29.94514637,-0.05619960278,0.1673770845,-0.03817907721
29.95514637,-0.07788532227,0.005345070735,-0.04993823543
29.96514637,-0.08796459436,-0.07696902007,-0.0430659987
29.97514637,-0.08888089657,-0.1113301888,-0.01771509275
29.98514637,-0.06169738993,-0.1246165112,-0.01160643995
29.99514637,-0.05054909736,-0.1293507218,-0.006872233935
30.00514637,-0.03940080851,-0.1317941695,-0.001985311974
30.01514637,-0.03145955876,-0.07773260027,-0.009010262787
30.02514637,-0.01481348183,-0.02840523422,-0.022143865
30.03514637,-0.02611448988,-0.002748893574,-0.02809980139
30.04514637,-0.03649919853,0.04138612002,-0.04016438872
30.05514637,-0.03833179548,0.09162978828,-0.0545197241
30.06514637,-0.0300851129,0.129808858,-0.05925392732
30.07514637,-0.03665191308,0.1676825136,-0.05772676691
30.08514637,-0.05253441259,0.1675297916,-0.05161811411
30.09514637,-0.06734789163,0.1673770845,-0.0552833043
30.10514637,-0.05894849449,0.184634015,-0.06368270516
30.11514637,-0.05681046844,0.2128865421,-0.07330382615
30.12514637,-0.0545197241,0.2338086665,-0.08552113175
30.13514637,-0.05009094998,0.2805398703,-0.09376781434
30.14514637,-0.04673119262,0.3112358451,-0.09117163718
30.15514637,-0.04444044828,0.3271183372,-0.08246681094
30.16514637,-0.05436700583,0.3281873465,-0.07513642311
30.17514637,-0.05574145541,0.3391829133,-0.0726929605
30.18514637,-0.0484110713,0.3527746797,-0.07498370856
30.19514637,-0.0423024185,0.3443752825,-0.07757988572
30.20514637,-0.03665191308,0.28313604,-0.08399397135
30.21514637,-0.03512475267,0.2561052442,-0.0719293803
30.22514637,-0.02153299935,0.2524400651,-0.06459899992
30.23514637,-0.009315694682,0.2525927722,-0.06704246253
30.24514637,0.0001527163113,0.2822197378,-0.07070764899
30.25514637,0.008552113548,0.3055853248,-0.06688974798
30.26514637,0.003359758761,0.3251330256,-0.06551529467
30.27514637,-0.0004581489484,0.3397938013,-0.07147123665
30.28514637,0.007788531948,0.3681990206,-0.07757988572
30.29514637,0.04169155285,0.4138612151,-0.07727445662
30.30514637,0.07467827946,0.4338670373,-0.07483099401
30.31514637,0.07666359097,0.3616322279,-0.0850629881
30.32514637,0.0415388383,0.2028072625,-0.05283984542
30.33514637,0.01343903504,0.07987063378,-0.03145955876
30.34514637,-0.01985312067,-0.02229658142,-0.01481348183
30.35514637,-0.04978551716,-0.08032877743,-0.004123340361
30.36514637,-0.04886921868,-0.05955936015,0.005803219974
30.37514637,-0.03680463135,-0.0423024185,0.0155770639
30.38514637,-0.02687807009,-0.04718934,0.02412917651
30.39514637,-0.04276056588,-0.05955936015,0.0239764601
30.40514637,-0.01527163107,0.01542434748,0.03176499158
30.41514637,0.01007927675,0.05604688451,0.04169155285
30.42514637,0.002748893574,0.05360342562,0.04046982154
30.43514637,-0.00320704258,0.03756821156,0.03787364438
30.44514637,0.005039638374,0.07070764899,0.04046982154
30.45514637,-0.0004581489484,0.1282816976,0.04214970022
30.46514637,0.005955935922,0.2020436823,0.03145955876
30.47514637,0.03115412779,0.2574796975,0.0232128799
30.48514637,0.05375614017,0.2173153162,0.009468411095
30.49514637,0.04016438872,0.1069014147,0.007635815535
30.50514637,-0.005192354787,-0.008857546374,0.005955935922
30.51514637,-0.03909537569,-0.05696318299,0.005803219974
30.52514637,-0.04031710699,-0.05696318299,0.004581489135
30.53514637,-0.03039054573,-0.06307183951,0.0007635815418
30.54514637,-0.02901609987,-0.07528914511,-0.007788531948
30.55514637,-0.03512475267,-0.08261952549,-0.01145372353
30.56514637,-0.03772092983,-0.0716239512,-0.01511891466
30.57514637,-0.03894266114,-0.0728456825,-0.01878410578
30.58514637,-0.04138612002,-0.07406741381,-0.02244929783
30.59514637,-0.03649919853,-0.0726929605,-0.02855795063
30.60514637,-0.02916881628,-0.07147123665,-0.02733621933
30.61514637,-0.0251981914,-0.08735372871,-0.02367102914
30.62514637,-0.04092797264,-0.1072068512,-0.01649336144
30.63514637,-0.0484110713,-0.1061378345,-0.01038470957
30.64514637,-0.04245513305,-0.08399397135,-0.009010262787
30.65514637,-0.03649919853,-0.06918048859,-0.004123340361
30.66514637,-0.03298672289,-0.05207626149,-0.0003054326226
30.67514637,-0.03420845419,-0.0484110713,0.005803219974
30.68514637,-0.03436116874,-0.0423024185,0.01069014147
30.69514637,-0.03313944116,-0.03252857551,0.0155770639
30.70514637,-0.03436116874,-0.03375030309,0.01435533352
30.71514637,-0.04046982154,-0.04612032697,0.01191187184
30.72514637,-0.03313944116,-0.0410806872,0.009468411095
30.73514637,-0.01863138936,-0.02122756653,0.007177666761
30.74514637,-0.009010262787,-0.0003054326226,0.005955935922
30.75514637,-0.0007635815418,0.02916881628,0.003665191587
30.76514637,-0.00320704258,0.02672535367,-0.0
30.77514637,-0.01282817032,0.02061670274,-0.006108652335
30.78514637,-0.02000583708,-0.0003054326226,-0.008704829961
30.79514637,-0.01634064503,-0.002748893574,-0.009926560335
30.80514637,-0.01130100712,-0.01618792862,-0.008704829961
30.81514637,-0.006261368748,-0.01985312067,-0.008704829961
30.82514637,-0.0001527163113,-0.01725694351,-0.008704829961
30.83514637,0.0009162978968,-0.009926560335,-0.008704829961
30.84514637,-0.0003054326226,-0.008704829961,-0.007483099122
30.85514637,-0.001527163084,-0.01481348183,-0.006261368748
30.86514637,-0.007483099122,-0.02107485011,-0.005039638374
30.87514637,-0.002748893574,-0.01114829071,-0.003817907767
30.88514637,0.006872233935,0.0109955743,-0.00244346098
30.89514637,0.006719517522,0.01832595654,-0.00122173049
30.90514637,0.005497787148,0.02565634064,-0.00122173049
30.91514637,-0.0006108652451,0.02306016348,-0.0
30.92514637,0.003054326167,0.02687807009,-0.0
30.93514637,0.006719517522,0.02809980139,0.00244346098
30.94514637,-0.0004581489484,0.01328631863,0.003665191587
30.95514637,-0.00167987938,0.008399397135,0.004886921961
30.96514637,-0.00167987938,0.007177666761,0.004734205548
30.97514637,-0.002748893574,-0.003970623948,0.007177666761
30.98514637,-0.003970623948,-0.01007927675,0.007177666761
30.99514637,-0.0003054326226,-0.007635815535,0.005955935922
31.00514637,0.003359758761,0.001069014193,0.004734205548
31.01514637,0.0007635815418,0.009621127509,0.003665191587
31.02514637,-0.0004581489484,0.009621127509,0.006108652335
31.03514637,-0.0006108652451,0.01572977938,0.003665191587
31.04514637,0.0006108652451,0.01695151068,0.00122173049
31.05514637,0.003054326167,0.02687807009,-0.0
31.06514637,0.004123340361,0.0354301855,-0.0
31.07514637,0.006566801574,0.03176499158,-0.00122173049
31.08514637,0.005497787148,0.02687807009,-0.00122173049
31.09514637,0.001832595794,0.01450804994,-0.00244346098
31.10514637,-0.003970623948,-0.01130100712,-0.001374446787
31.11514637,-0.005192354787,-0.006261368748,-0.003817907767
31.12514637,-0.002748893574,-0.002596177394,-0.002596177394
31.13514637,0.0007635815418,0.001069014193,-0.002596177394
31.14514637,-0.0004581489484,0.005955935922,-0.003817907767
31.15514637,-0.002901609987,0.009621127509,-0.00244346098
31.16514637,0.001832595794,0.0171042271,-0.003665191587
31.17514637,0.007941247895,0.0232128799,-0.00122173049
31.18514637,0.01038470957,0.0293215327,-0.00244346098
31.19514637,0.0007635815418,0.004734205548,-0.002596177394
31.20514637,-0.007635815535,-0.01130100712,-0.001374446787
31.21514637,-0.001527163084,-0.006261368748,-0.001374446787
31.22514637,0.004581489135,-0.001374446787,-0.0001527163113
31.23514637,0.004581489135,-0.002596177394,-0.0001527163113
31.24514637,0.0007635815418,0.004734205548,-0.0001527163113
31.25514637,0.00320704258,0.008399397135,-0.0001527163113
31.26514637,0.001832595794,0.02199114859,-0.0
31.27514637,0.0006108652451,0.01695151068,0.00122173049
31.28514637,-0.001832595794,0.01328631863,0.00122173049
31.29514637,-0.0004581489484,0.01084285788,-0.0
31.30514637,0.0009162978968,-0.0001527163113,0.001069014193
31.31514637,-0.001527163084,-0.005039638374,-0.0001527163113
31.32514637,-0.001527163084,-0.007483099122,0.001069014193
31.33514637,0.0009162978968,-0.009926560335,-0.0001527163113
31.34514637,0.002138028387,-0.001374446787,0.001069014193
31.35514637,0.00320704258,0.001069014193,-0.0001527163113
31.36514637,0.001985311974,0.001069014193,-0.0001527163113
31.37514637,-0.00167987938,-0.0001527163113,-0.0001527163113
31.38514637,0.00320704258,0.01206458826,-0.00122173049
31.39514637,-0.0004581489484,0.01084285788,-0.0
31.40514637,-0.005345070735,0.01084285788,-0.00122173049
31.41514637,-0.005345070735,0.004734205548,-0.001374446787
31.42514637,-0.006566801574,0.003512475174,-0.001374446787
31.43514637,-0.006566801574,0.003512475174,-0.001374446787
31.44514637,-0.006566801574,0.003512475174,-0.001374446787
31.45514637,0.0009162978968,-0.006261368748,-0.0001527163113
31.46514637,-0.001527163084,-0.01114829071,-0.0001527163113
31.47514637,0.002138028387,-0.005039638374,-0.001374446787
31.48514637,0.001985311974,0.002290744567,-0.001374446787
31.49514637,0.006872233935,0.01588249579,-0.0
31.50514637,0.00320704258,0.01450804994,-0.0
31.51514637,-0.00167987938,0.002290744567,-0.0001527163113
31.52514637,0.0007635815418,0.009621127509,-0.00122173049
31.53514637,0.0007635815418,0.004734205548,-0.001374446787
31.54514637,0.002138028387,-0.001374446787,-0.0001527163113
31.55514637,0.0009162978968,-0.003817907767,-0.0001527163113
31.56514637,-0.0003054326226,-0.01114829071,0.001069014193
31.57514637,-0.003970623948,-0.003817907767,0.001069014193
31.58514637,-0.0004581489484,0.004734205548,0.003512475174
31.59514637,-0.002901609987,0.002290744567,0.002290744567
31.60514637,-0.006566801574,0.004734205548,0.001069014193
31.61514637,-0.0004581489484,0.009621127509,-0.00122173049
31.62514637,0.001985311974,0.01206458826,-0.0
31.63514637,-0.0004581489484,0.003512475174,-0.0001527163113
31.64514637,-0.00167987938,0.002290744567,-0.001374446787
31.65514637,-0.00167987938,-0.0001527163113,-0.001374446787
31.66514637,-0.003970623948,-0.002596177394,-0.0001527163113
31.67514637,-0.001527163084,-0.008704829961,-0.0001527163113
31.68514637,-0.003970623948,-0.006261368748,-0.0001527163113
31.69514637,-0.007788531948,-0.002748893574,-0.0001527163113
31.70514637,-0.006566801574,0.0009162978968,-0.0001527163113
31.71514637,-0.006566801574,-0.002748893574,-0.0001527163113
31.72514637,-0.003970623948,-0.01007927675,0.001069014193
31.73514637,-0.007635815535,-0.01496619824,0.001069014193
31.74514637,-0.008857546374,-0.01130100712,0.002290744567
31.75514637,-0.006414085161,-0.01007927675,0.003512475174
31.76514637,-0.002748893574,-0.01130100712,0.002290744567
31.77514637,-0.002748893574,-0.01007927675,0.002290744567
31.78514637,-0.0003054326226,-0.005039638374,0.003512475174
31.79514637,-0.0003054326226,-0.003817907767,0.002290744567
31.80514637,-0.002748893574,-0.003970623948,0.003512475174
31.81514637,0.0009162978968,-0.003817907767,0.003512475174
31.82514637,-0.0003054326226,-0.005039638374,0.002290744567
31.83514637,-0.003970623948,-0.006414085161,0.003512475174
31.84514637,-0.008857546374,-0.005192354787,0.002290744567
31.85514637,-0.0160352122,-0.02367102914,0.003512475174
31.86514637,-0.01847867295,-0.02611448988,0.001069014193
31.87514637,-0.009926560335,-0.02107485011,0.001069014193
31.88514637,0.0009162978968,-0.01359175146,0.001069014193
31.89514637,0.008246680722,-0.002596177394,-0.0001527163113
31.90514637,0.01313360315,0.003665191587,0.002290744567
31.91514637,0.008246680722,0.002290744567,0.002290744567
31.92514637,0.004428773187,0.002290744567,0.001069014193
31.93514637,0.00320704258,0.005955935922,0.001069014193
31.94514637,0.001985311974,0.004734205548,-0.0001527163113
31.95514637,-0.0004581489484,0.005955935922,-0.001374446787
31.96514637,-0.00167987938,0.004734205548,-0.0001527163113
31.97514637,-0.0004581489484,0.002290744567,-0.002596177394
31.98514637,0.005650503561,0.004886921961,-0.001374446787
31.99514637,0.01924225502,0.007483099122,-0.003817907767
32.00514637,0.02046398632,0.0001527163113,-0.003817907767
32.01514637,0.01191187184,-0.003665191587,-0.001374446787
32.06901977,0.1492038369,0.1290452778,-0.01069014147
32.07901977,0.1233947799,0.1386664063,-0.01420261711
32.08901977,0.09376781434,0.1505782902,-0.02260201424
32.09901977,0.0728456825,0.1528690308,-0.0262672063
32.10901977,0.06429356337,0.1514945775,-0.02382374369
32.11901977,0.0716239512,0.1502728462,-0.02260201424
32.12901977,0.08659014851,0.1296561509,-0.01664607786
32.13901977,0.09071348608,0.08674286306,-0.01206458826
32.14901977,0.08139779419,0.04489859566,-0.0109955743
32.15901977,0.06826419383,0.006719517522,-0.003817907767
32.16901977,0.04657847434,-0.02657263726,0.0009162978968
32.17901977,0.02229658142,-0.04780020565,0.005650503561
32.18901977,-0.0009162978968,-0.05910121277,0.01053742506
32.19901977,-0.01053742506,-0.08002334833,0.01649336144
32.20901977,-0.009010262787,-0.1094975919,0.01634064503
32.21901977,-0.003817907767,-0.1351539344,0.01863138936
32.22901977,-0.003817907767,-0.1363756657,0.02229658142
32.23901977,-0.007483099122,-0.1365283877,0.02596177347
32.24901977,-0.009926560335,-0.1401935667,0.02840523422
32.25901977,-0.001527163084,-0.1204931661,0.03100141138
32.26901977,0.008093964309,-0.1007927656,0.03344487399
32.27901977,0.01160643995,-0.08109235764,0.03359758854
32.28901977,0.01511891466,-0.06765332818,0.03604105115
32.29901977,0.01985312067,-0.05283984542,0.0313068442
32.30901977,0.01970040426,-0.03558290005,0.02412917651
32.31901977,0.01191187184,-0.007483099122,0.01450804994
32.32901977,0.005497787148,0.01817324013,0.006108652335
32.33901977,-0.004581489135,0.04276056588,-0.002290744567
32.34901977,-0.009621127509,0.05253441259,-0.008399397135
32.35901977,-0.003512475174,0.06246097013,-0.0155770639
32.36901977,0.0160352122,0.06261368841,-0.02183843218
32.37901977,0.02000583708,0.0491746515,-0.02550362423
32.38901977,0.006566801574,0.02947424725,-0.02076941915
32.39901977,-0.01878410578,0.002138028387,-0.01588249579
32.40901977,-0.03573561832,-0.03115412779,-0.01237002108
32.41901977,-0.03436116874,-0.04337143153,-0.01007927675
32.42901977,-0.01343903504,-0.04688390717,-0.006414085161
32.43901977,0.02809980139,-0.02306016348,-0.003970623948
32.44901977,0.0719293803,0.01160643995,0.002290744567
32.45901977,0.08781187981,0.0190895386,0.005955935922
32.46901977,0.07788532227,0.0313068442,0.005955935922
32.47901977,0.05345070735,0.02000583708,0.008399397135
32.48901977,0.03527746722,0.001374446787,0.007177666761
32.49901977,0.0232128799,-0.03054326214,0.003359758761
32.50901977,0.0160352122,-0.04291328415,0.002138028387
32.51901977,0.01496619824,-0.05268712714,0.0007635815418
32.52901977,0.0125227375,-0.05513058975,-0.002901609987
32.53901977,0.01725694351,-0.04780020565,-0.004123340361
32.54901977,0.0282525178,-0.03909537569,-0.005192354787
32.55901977,0.04642575979,-0.01802052557,-0.01618792862
32.56901977,0.05619960278,-0.01664607786,-0.01863138936
32.57901977,0.04886921868,-0.01175915636,-0.01863138936
32.58901977,0.03313944116,-0.02916881628,-0.01618792862
32.59901977,0.02580905706,-0.04031710699,-0.01007927675
32.60901977,0.02687807009,-0.02428189293,-0.007635815535
32.61901977,0.02916881628,-0.009621127509,-0.002596177394
32.62901977,0.03145955876,0.008704829961,0.003512475174
32.63901977,0.02886338346,0.01847867295,0.004886921961
32.64901977,0.01893682219,0.02580905706,0.004886921961
32.65901977,0.004276056774,0.0232128799,0.00122173049
32.66901977,-0.001832595794,0.01939497143,-0.003665191587
32.67901977,-0.004276056774,0.01695151068,-0.004886921961
32.68901977,-0.003054326167,0.01206458826,-0.003665191587
32.69901977,-0.004123340361,0.007177666761,-0.003665191587
32.70901977,0.001832595794,0.01939497143,0.00244346098
32.71901977,-0.005345070735,0.01069014147,0.009773843922
32.72901977,-0.006719517522,0.02412917651,0.01466076635
32.73901977,-0.006872233935,0.03161227703,0.0171042271
32.74901977,0.0004581489484,0.03283400834,0.0171042271
32.75901977,-0.001985311974,0.02916881628,0.0171042271
32.76901977,-0.007941247895,0.02168571576,0.01466076635
32.77901977,-0.01313360315,0.04016438872,0.009926560335
32.78901977,-0.01679879427,0.03894266114,0.001374446787
32.79901977,-0.01679879427,0.04138612002,0.001374446787
32.80901977,-0.01328631863,0.04993823543,-0.002290744567
32.81901977,-0.008246680722,0.05131268129,-0.004734205548
32.82901977,-0.006872233935,0.03420845419,-0.008399397135
32.83901977,-0.0007635815418,0.03176499158,-0.01221730467
32.84901977,0.0006108652451,0.01588249579,-0.008552113548
32.85901977,-0.0004581489484,0.009621127509,-0.007330383174
32.86901977,0.01664607786,0.01114829071,-0.006261368748
32.87901977,0.0300851129,0.01618792862,-0.003817907767
32.88901977,0.02657263726,0.009926560335,0.005955935922
32.89901977,0.0239764601,0.01970040426,0.0109955743
32.90901977,0.01771509275,0.02565634064,0.0171042271
32.91901977,0.01175915636,0.01832595654,0.01832595654
32.92901977,0.0007635815418,0.009468411095,0.01939497143
32.93901977,-0.004123340361,0.009468411095,0.01588249579
32.94901977,-0.002901609987,0.005803219974,0.009621127509
32.95901977,-0.0004581489484,0.008399397135,0.004886921961
32.96901977,0.008093964309,0.009773843922,0.002290744567
32.97901977,0.01298088674,0.008552113548,0.002290744567
32.98901977,0.01420261711,0.01466076635,0.00122173049
32.99901977,0.01282817032,0.02443460934,0.00244346098
33.00901977,0.005497787148,0.02199114859,0.006108652335
33.01901977,-0.01511891466,0.007024950348,0.0109955743
33.02901977,-0.03084869497,-0.0201585535,0.01206458826
33.03901977,-0.03436116874,-0.03375030309,0.01313360315
33.04901977,-0.02687807009,-0.04352414981,0.01313360315
33.05901977,-0.01343903504,-0.03588833287,0.01191187184
33.06901977,-0.00244346098,-0.02962696366,0.01191187184
33.07901977,0.003512475174,-0.02107485011,0.01191187184
33.08901977,0.007024950348,-0.002596177394,0.009621127509
33.09901977,0.009315694682,0.01221730467,0.004886921961
33.10901977,0.006872233935,0.005955935922,0.003512475174
33.11901977,0.001985311974,0.003512475174,0.002290744567
33.12901977,0.005803219974,-0.0001527163113,-0.003817907767
33.13901977,0.01313360315,0.004886921961,-0.005039638374
33.14901977,0.009468411095,0.00122173049,-0.001374446787
33.15901977,0.01069014147,-0.005039638374,0.003512475174
33.16901977,0.01313360315,-0.006261368748,0.008399397135
33.17901977,0.0190895386,0.009773843922,0.01084285788
33.18901977,0.01924225502,0.00122173049,0.01450804994
33.19901977,0.01435533352,-0.002596177394,0.01572977938
33.20901977,0.01313360315,-0.005039638374,0.01328631863
33.21901977,0.01832595654,-0.022143865,0.007024950348
33.22901977,0.02092213556,-0.03787364438,-0.001527163084
33.23901977,0.0270307865,-0.0415388383,-0.006566801574
33.24901977,0.02580905706,-0.03909537569,-0.008857546374
33.25901977,0.01970040426,-0.03665191308,-0.008857546374
33.26901977,0.0171042271,-0.02443460934,-0.006414085161
33.27901977,0.009621127509,-0.01114829071,-0.001374446787
33.28901977,0.008093964309,0.008399397135,0.005955935922
33.29901977,0.01786780916,0.02076941915,0.01221730467
33.30901977,0.0190895386,0.02076941915,0.02076941915
33.31901977,0.006872233935,0.01328631863,0.02076941915
33.32901977,-0.008857546374,-0.01145372353,0.01450804994
33.33901977,-0.01237002108,-0.02733621933,0.008246680722
33.34901977,-0.01221730467,-0.03955352306,0.004581489135
33.35901977,-0.002290744567,-0.0479529202,-0.0003054326226
33.36901977,0.00122173049,-0.03817907721,-0.001527163084
33.37901977,-0.0001527163113,-0.02596177347,-0.0003054326226
33.38901977,0.005955935922,-0.01237002108,0.002290744567
33.39901977,0.002138028387,-0.007483099122,0.007177666761
33.40901977,-0.005192354787,-0.007635815535,0.008399397135
33.41901977,-0.003970623948,-0.006414085161,0.007177666761
33.42901977,-0.006566801574,-0.002748893574,0.009621127509
33.43901977,-0.01130100712,-0.01007927675,0.01084285788
33.44901977,-0.02351831272,-0.01511891466,0.008399397135
33.45901977,-0.01847867295,-0.02855795063,0.003359758761
33.46901977,-0.003970623948,-0.007635815535,0.002290744567
33.47901977,0.007177666761,-0.01237002108,0.003512475174
33.48901977,0.008246680722,-0.006261368748,0.002290744567
33.49901977,0.001985311974,0.003512475174,-0.002596177394
33.50901977,-0.0004581489484,0.009621127509,-0.004886921961
33.51901977,-0.002901609987,0.005955935922,-0.003817907767
33.52901977,0.0007635815418,0.007177666761,-0.002596177394
33.53901977,0.004428773187,0.01466076635,-0.003665191587
33.54901977,0.004428773187,0.01343903504,-0.00122173049
33.55901977,0.009315694682,0.0171042271,-0.00244346098
33.56901977,0.01282817032,0.02809980139,-0.0
33.57901977,0.0140499007,0.02687807009,0.00122173049
33.58901977,0.006719517522,0.0232128799,0.004886921961
33.59901977,-0.0006108652451,0.02306016348,0.006108652335
33.60901977,-0.005497787148,0.01328631863,0.007330383174
33.61901977,-0.00167987938,0.007177666761,0.005955935922
33.62901977,0.009315694682,0.007330383174,0.004734205548
33.63901977,0.0239764601,0.01114829071,0.004734205548
33.64901977,0.02886338346,0.02458732575,0.00244346098
33.65901977,0.03359758854,0.03940080851,-0.0
33.66901977,0.02489275858,0.03940080851,0.00122173049
33.67901977,0.01160643995,0.02565634064,0.003665191587
33.68901977,-0.005345070735,0.004734205548,0.001069014193
33.69901977,-0.01618792862,-0.01389718428,0.002290744567
33.70901977,-0.01725694351,-0.03100141138,0.0009162978968
33.71901977,-0.005039638374,-0.02962696366,0.0009162978968
33.72901977,0.01466076635,-0.0232128799,-0.002748893574
33.73901977,0.02306016348,-0.01588249579,-0.001527163084
33.74901977,0.02306016348,-0.01221730467,0.001069014193
33.75901977,0.02168571576,0.008704829961,0.002290744567
33.76901977,0.0262672063,0.02580905706,0.003665191587
33.77901977,0.02382374369,0.02458732575,-0.0
33.78901977,0.02275473066,0.02092213556,-0.0
33.79901977,0.02138028294,0.02947424725,-0.003665191587
33.80901977,0.01664607786,0.01970040426,-0.004886921961
33.81901977,0.006872233935,0.01221730467,-0.007330383174
33.82901977,0.004428773187,0.006108652335,-0.008704829961
33.83901977,0.01053742506,0.004886921961,-0.006261368748
33.84901977,0.01069014147,0.00244346098,0.001069014193
33.85901977,0.005803219974,-0.0001527163113,0.002290744567
33.86901977,0.008093964309,0.003665191587,0.001069014193
33.87901977,0.02153299935,0.01970040426,-0.00122173049
33.88901977,0.037415497,0.02962696366,0.00122173049
33.89901977,0.03145955876,0.01237002108,0.003512475174
33.90901977,0.009468411095,-0.003817907767,0.003512475174
33.91901977,-0.006414085161,-0.008857546374,0.001069014193
33.92901977,-0.01130100712,-0.01007927675,-0.0001527163113
33.93901977,-0.0003054326226,-0.001374446787,-0.005039638374
33.94901977,0.01420261711,0.0109955743,-0.005039638374
33.95901977,0.01542434748,0.008552113548,-0.002596177394
33.96901977,0.009315694682,0.009773843922,-0.001374446787
33.97901977,0.008093964309,0.01343903504,-0.00122173049
33.98901977,0.004428773187,0.01450804994,0.00244346098
33.99901977,0.004276056774,0.02443460934,0.00122173049
34.00901977,0.003054326167,0.01832595654,-0.00122173049
34.01901977,-0.009010262787,0.0009162978968,-0.002596177394
34.02901977,-0.01634064503,-0.007635815535,-0.008704829961
34.03901977,-0.007635815535,-0.006261368748,-0.01114829071
34.04901977,-0.008857546374,-0.005192354787,-0.006261368748
34.05901977,-0.0004581489484,0.003512475174,-0.001374446787
34.06901977,0.006872233935,0.01466076635,0.00244346098
34.07901977,0.01038470957,0.02809980139,0.004886921961
34.08901977,0.01649336144,0.03069597855,0.003665191587
34.09901977,0.01771509275,0.03069597855,0.003665191587
